Time (s),Gyroscope x (rad/s),Gyroscope y (rad/s),Gyroscope z (rad/s)
0.033831593,0,0,0
0.052203175,0,0,0
0.071764942,0,0,0
0.081805225,0,0,0
0.091876026,-0.1271406114,-0.234661445,0.1442054212
0.101977345,-0.1130558625,-0.2033925951,0.1450922638
0.112597462,-0.1009483784,-0.1879706085,0.1445807368
0.122607227,-0.09018339217,-0.1737611592,0.1424084604
0.132616993,-0.08101395518,-0.1596550345,0.1397110522
0.142657276,-0.07349695265,-0.1454683691,0.1371492893
0.152667042,-0.06400066614,-0.1473335475,0.1278695762
0.162707325,-0.05735252053,-0.1467894018,0.1179314628
0.172717091,-0.05538044497,-0.1369153261,0.1100687161
0.182726856,-0.05442201719,-0.1328571588,0.09988544136
0.192767139,-0.05335149169,-0.1380520761,0.08656196296
0.202807423,-0.05424408987,-0.1397916526,0.07516599447
0.212817188,-0.05764249712,-0.131622836,0.06801232696
0.222857471,-0.05888329074,-0.1303368211,0.05941772088
0.232897755,-0.0581773445,-0.1337998509,0.05007636175
0.242968555,-0.05902945623,-0.1272386909,0.04549730569
0.253008839,-0.05943402275,-0.1197133586,0.04277851433
0.263079639,-0.05785524473,-0.114869751,0.04090438783
0.273180958,-0.05450370163,-0.1131402031,0.0404160358
0.283221241,-0.04738619551,-0.1223742664,0.03897541761
0.293322559,-0.03670023009,-0.1425871402,0.03646688908
0.30339336,-0.02621497586,-0.1572690755,0.03775908425
0.313433643,-0.0160014201,-0.1673029214,0.0412286669
0.323534962,-0.01078338455,-0.1556654572,0.05185806379
0.333605762,-0.006059635431,-0.1480276585,0.0600842461
0.343646046,0.0005148235941,-0.142106846,0.06694936007
0.353747364,0.01375247259,-0.1451893747,0.06938643754
0.363818165,0.03025916964,-0.1412950903,0.07213629037
0.373888966,0.04970029742,-0.1360359341,0.07311698049
0.384509083,0.07138071209,-0.1383396238,0.06967581064
0.394549366,0.09051147848,-0.136801213,0.06649912894
0.404650684,0.1088219136,-0.1434792727,0.05958122015
0.414721485,0.1240098551,-0.1482058913,0.05298692733
0.434771534,0.1471526325,-0.140772149,0.04791393876
0.444811817,0.1530687809,-0.1288125217,0.04651422426
0.465136524,0.1610053629,-0.1148411185,0.03898732364
0.484881397,0.1635585427,-0.1014968008,0.03060330637
0.504870411,0.1532655954,-0.1089333221,0.01421909966
0.514971729,0.1380503476,-0.1059798896,0.002821845235
0.525012012,0.1245005205,-0.1064262167,-0.01533605158
0.535082813,0.1056969464,-0.09709840268,-0.03653725609
0.545184132,0.09209518135,-0.09483741969,-0.0623459816
0.555254932,0.08441373706,-0.09402260184,-0.08698533475
0.565356251,0.07274764776,-0.1117541492,-0.1132806763
0.585436817,-0.008126387373,-0.1459119618,-0.152521804
0.595507618,-0.06051458418,-0.1584810615,-0.1650100201
0.605578419,-0.1052384377,-0.1805775315,-0.1797614992
0.61564922,-0.1348139197,-0.2124315947,-0.1946571916
0.625750538,-0.1595470607,-0.2518511117,-0.2159819305
0.635790821,-0.1781494766,-0.2979274988,-0.2420843542
0.645861622,-0.1953426152,-0.3323826492,-0.2676837146
0.655932423,-0.204954952,-0.3783055246,-0.2997297943
0.666460987,-0.2050618231,-0.438798219,-0.3369368911
0.686144825,-0.1915777624,-0.5742478967,-0.4059668183
0.696215626,-0.1717800498,-0.6393553019,-0.4219147861
0.706286427,-0.1474810988,-0.6931877136,-0.4242807925
0.716357227,-0.11239326,-0.7238283157,-0.4113015831
0.726428028,-0.07045067847,-0.7799569964,-0.4165051877
0.736498829,-0.02652974427,-0.8251270652,-0.4170381427
0.74656963,0.0100737568,-0.8476752639,-0.3857956827
0.75664043,0.03745684773,-0.8606388569,-0.3216344118
0.767291065,0.04452865943,-0.8432350755,-0.2233729959
0.786852833,0.1194154397,-0.8469378352,-0.03911020979
0.796923634,0.2045529038,-0.8357380629,0.03471140936
0.806963917,0.2980271578,-0.8162395954,0.1019453704
0.817034718,0.3755658865,-0.7571489215,0.1666114628
0.827105518,0.4566811323,-0.7314280272,0.2237316072
0.837176319,0.5300019383,-0.704059422,0.2738861442
0.847277637,0.5958560705,-0.6770918965,0.3141925931
0.857348438,0.6526746154,-0.6427178979,0.3485338092
0.868182179,0.7025913,-0.5997889638,0.3777880073
0.887591358,0.8124521971,-0.5119360685,0.4289768338
0.897631641,0.8527262211,-0.4540844858,0.4380501211
0.907702442,0.8869866133,-0.393789202,0.4363965392
0.917773243,0.8921311498,-0.3306558132,0.4102761447
0.927874561,0.9111683369,-0.2798700035,0.3832419515
0.937914845,0.9212334752,-0.2324242741,0.3469516039
0.947985645,0.9232045412,-0.1986567676,0.305452019
0.958086964,0.9157016277,-0.1727969348,0.2702345252
0.969042774,0.8971961737,-0.139531672,0.2351842821
0.988482471,0.8600409627,-0.07501375675,0.06257875264
1.00841045,0.8111970425,-0.0669778958,-0.2334287614
1.018481251,0.7536931634,-0.07252915949,-0.3646756113
1.028552052,0.7140107751,-0.07248973846,-0.4800848961
1.038622852,0.657111764,-0.07485683262,-0.5627959967
1.048693653,0.6176710725,-0.07432477921,-0.6397874355
1.058764454,0.5801448822,-0.07903259248,-0.70337677
1.068804737,0.5460523963,-0.09680534154,-0.7558373213
1.079211231,0.5107694268,-0.1073676348,-0.790869832
1.099047657,0.444609493,-0.1055064946,-0.8225972652
1.109118458,0.4051148295,-0.1038262993,-0.8023709059
1.119158741,0.3660858572,-0.09904190898,-0.7670634985
1.129260059,0.3213520348,-0.09306894243,-0.701990664
1.13933086,0.2890152633,-0.09033750743,-0.6467709541
1.149401661,0.2562832832,-0.07254878432,-0.5818590522
1.169543262,0.2030015588,-0.02648564428,-0.4662037194
1.180071827,0.1819869727,-0.02099834196,-0.4137967527
1.199755665,0.1297339797,0.04120181873,-0.2406147569
1.209826466,0.1016371548,0.08680309355,-0.1298927963
1.219897266,0.07707477361,0.1312767863,-0.02920894884
1.229968067,0.06254767627,0.1483678669,0.03986095265
1.240038868,0.05982439965,0.1576490551,0.0832246244
1.250109669,0.06528000534,0.1642705053,0.1128874347
1.26018047,0.07810980082,0.1743034422,0.1326383799
1.27025127,0.1030066609,0.1699837297,0.1408562511
1.280901905,0.1350405961,0.1681169271,0.1404038817
1.300433155,0.2214822322,0.1575839221,0.1194821075
1.310534473,0.2625605762,0.1487147957,0.1034620702
1.320605274,0.2974250615,0.1454692781,0.09241683036
1.330676075,0.3203594089,0.1308838278,0.07649411261
1.340746876,0.3492233157,0.1047890633,0.04416870326
1.350817677,0.3756910861,0.07161252201,-0.007948678918
1.360888477,0.3987523019,0.03649410233,-0.07242601365
1.370959278,0.4188436866,0.001062481431,-0.1359491944
1.381701466,0.434130609,-0.02456821315,-0.1859609336
1.40117168,0.4641352892,-0.05215344578,-0.2372135371
1.411242481,0.4669380486,-0.05067265779,-0.2356783599
1.421282764,0.4601326287,-0.0256059356,-0.2209329009
1.431384083,0.4359297752,0.007420924027,-0.1919171661
1.441454884,0.4197122753,0.03377880901,-0.1618689597
1.451525684,0.3951488435,0.06900107861,-0.1266050935
1.471697804,0.3343670368,0.1493470669,-0.06285367906
1.482531544,0.2884340584,0.1959552169,-0.02312237956
1.501879688,0.1791065186,0.3316410184,0.1096425876
1.511950489,0.1312219799,0.3998967409,0.1861476451
1.52202129,0.09825704247,0.4375830293,0.2497279346
1.532092091,0.05068682507,0.4342364967,0.2867594957
1.542162891,-0.01279899292,0.4257540703,0.3131092489
1.552233692,-0.08527667075,0.3983639479,0.3250451088
1.562304493,-0.1531613767,0.3494672477,0.3250243366
1.572375294,-0.2116103321,0.3068013191,0.3171899915
1.583361622,-0.2550055087,0.2691394091,0.3032925427
1.602587696,-0.3219082654,0.2139900029,0.2758542895
1.612658497,-0.3332717419,0.1764171273,0.2524103522
1.632800098,-0.320414871,0.06225277483,0.1421129405
1.642901417,-0.2803190947,-0.04283285514,0.01936506853
1.6529417,-0.2289500982,-0.1828531623,-0.1446443349
1.663043018,-0.1565527618,-0.3482143879,-0.3336647153
1.673113819,-0.08180963993,-0.5270591378,-0.546739161
1.6841917,0.00417180825,-0.6863086224,-0.7479351759
1.703295704,0.2357630134,-1.121375918,-1.223827362
1.713366505,0.3804905713,-1.332977772,-1.457963109
1.723437305,0.565051198,-1.596055269,-1.75198257
1.733508106,0.7212921381,-1.74103415,-1.927228928
1.743548389,0.8621402383,-1.840815783,-2.054456234
1.75361919,1.019760847,-1.953943729,-2.218237162
1.763689991,1.16833663,-2.020738125,-2.378949642
1.773791309,1.286315441,-2.030940056,-2.503501654
1.784106251,1.380701303,-2.011566877,-2.581769228
1.804003712,1.560047865,-1.905853152,-2.785294533
1.814013477,1.625966549,-1.79774642,-2.85231638
1.824145313,1.672674894,-1.679480195,-2.890974998
1.834216114,1.67230463,-1.529872775,-2.83904314
1.844256397,1.714788675,-1.430540919,-2.855009317
1.854327198,1.745637298,-1.337083101,-2.85088706
1.864397999,1.751594424,-1.249067307,-2.818182945
1.874499317,1.722074389,-1.153721094,-2.776306152
1.884570118,1.66364491,-1.057352901,-2.719017267
1.894640919,1.583807707,-0.9702171087,-2.651149273
1.904650684,1.497650266,-0.890835166,-2.566289186
1.914721485,1.408697844,-0.8176584244,-2.461354256
1.924792286,1.313997746,-0.7490525246,-2.336167574
1.934863087,1.211300611,-0.6827474236,-2.192321539
1.944933887,1.09683919,-0.6140602827,-2.031703949
1.955035206,0.9826056361,-0.5494792461,-1.856627107
1.965075489,0.8700148463,-0.4852243066,-1.67652607
1.975176807,0.7556375265,-0.4233492017,-1.468524218
1.985247608,0.6257362962,-0.4034267366,-1.221692443
1.995318409,0.4514380991,-0.4208195508,-0.8487371802
2.00538921,0.2714880109,-0.4437939823,-0.3969264627
2.015429493,0.1229166761,-0.4421145618,-0.005868989974
2.025530811,-0.005958502181,-0.4255157113,0.3205583692
2.035571095,-0.150523603,-0.4166073799,0.7047973871
2.045641895,-0.3392855823,-0.4073259532,1.187393665
2.055743214,-0.5053557754,-0.3825652599,1.583381176
2.065814014,-0.6677837372,-0.3349713385,1.944290161
2.075884815,-0.8396988511,-0.2511035204,2.324330091
2.085925098,-1.000051498,-0.1472413838,2.661706448
2.096026417,-1.136327505,-0.04674280062,2.949701548
2.1060667,-1.248864532,0.04803785309,3.176644802
2.116137501,-1.36512363,0.1960083246,3.339535952
2.126238819,-1.474440694,0.3959317505,3.427160263
2.136279102,-1.562036991,0.6346300244,3.435723543
2.146349903,-1.622222185,0.8843215704,3.395769596
2.156420704,-1.634718299,1.089283943,3.31298852
2.166491505,-1.604989409,1.250864029,3.193358421
2.176562305,-1.54448092,1.374613762,3.054340601
2.186633106,-1.462469697,1.458069324,2.906461477
2.196703907,-1.378875136,1.543392897,2.753032207
2.207385059,-1.29603529,1.615993023,2.588427067
2.217394825,-1.214371443,1.66301477,2.406518221
2.227435108,-1.141177177,1.702707887,2.210678101
2.237444874,-1.07886672,1.731035233,2.01213789
2.247454639,-1.022203326,1.756177068,1.829653978
2.257555958,-0.9424526691,1.747588754,1.65858984
2.267626759,-0.8424578309,1.735351443,1.443045378
2.277667042,-0.6944419146,1.699085832,1.183910489
2.287676807,-0.5507455468,1.631171465,0.9485003948
2.297717091,-0.3977963626,1.535267353,0.7137704492
2.307726856,-0.2584228814,1.430741668,0.5104474425
2.317767139,-0.144398272,1.314163685,0.3566635847
2.327776905,-0.05754366517,1.21260798,0.2356948256
2.337817188,0.01662230119,1.121504188,0.13296175
2.357897755,0.1808647364,0.9312467575,-0.03064283356
2.367968555,0.2610458732,0.8423413038,-0.08610029519
2.378039356,0.335598886,0.7720044255,-0.1196093485
2.388110157,0.3895151913,0.6955752969,-0.1278966218
2.398180958,0.4330520928,0.6518540382,-0.123511523
2.408251759,0.4551322162,0.6053541899,-0.1209526807
2.418322559,0.4478310943,0.5830956697,-0.07307396829
2.428362843,0.4066072702,0.6189566851,0.06050512567
2.438464161,0.348680675,0.6801354885,0.2229841501
2.448534962,0.2818991244,0.7632848024,0.4168777764
2.458544727,0.2152920216,0.8517400026,0.6062407494
2.468615528,0.1567280889,0.9204704165,0.7631683946
2.478686329,0.1093258187,0.9665673971,0.876365602
2.489367481,0.0748552531,0.9874375463,0.9479635358
2.499377247,0.03961804882,1.008342505,0.989135921
2.509387012,0.003522822633,0.9890405536,1.008366108
2.519427296,-0.04787580296,0.9646588564,1.009670377
2.539385792,-0.2050971389,0.9799483418,1.003959417
2.549395557,-0.2795366645,0.9522024393,0.9387384057
2.559435841,-0.3369865119,0.9295160174,0.8554332256
2.569445606,-0.35732463,0.8609235287,0.7453765273
2.579455372,-0.3573818207,0.7970350385,0.6494517922
2.589495655,-0.3542646766,0.754561007,0.5781797767
2.599505421,-0.3460209668,0.7046740055,0.4786812663
2.609576221,-0.3345906436,0.6371112466,0.3494068384
2.619647022,-0.3206869662,0.5620467663,0.20666188
2.629717823,-0.3057994843,0.4930402935,0.07208839804
2.639819141,-0.2897332609,0.4265593588,-0.04337920994
2.649889942,-0.2756105065,0.3735182583,-0.1413634866
2.659960743,-0.2630953491,0.3198268414,-0.2295012325
2.670062061,-0.2519417405,0.2570025623,-0.3139897585
2.680132862,-0.246304363,0.2045156956,-0.3939516246
2.690173145,-0.2450781763,0.1606557369,-0.4660570323
2.700274464,-0.242514655,0.1053635255,-0.528423667
2.710314747,-0.2425462306,0.05888168141,-0.5781881809
2.720416065,-0.2411433607,0.008400152437,-0.6161006689
2.730456348,-0.2383157313,-0.03948427737,-0.6447408199
2.740527149,-0.2346011698,-0.07579303533,-0.6670634747
2.750536915,-0.2262614518,-0.1124029383,-0.6878166795
2.760668751,-0.2164153904,-0.1422322094,-0.7109904885
2.770739552,-0.203248173,-0.1758908778,-0.7410659194
2.780779835,-0.1881311983,-0.210769251,-0.7818130255
2.790850636,-0.1700310111,-0.2503294051,-0.8373135328
2.800951954,-0.1457412094,-0.300252229,-0.9051284194
2.811022755,-0.1165037826,-0.350666374,-0.9730172753
2.821063038,-0.07983347774,-0.4174994528,-1.04686749
2.831164356,-0.04190705344,-0.5072161555,-1.141586542
2.841265675,-0.001837174408,-0.6214447618,-1.252469778
2.851336475,0.04547824338,-0.735598743,-1.35829854
2.861407276,0.09896001965,-0.842839241,-1.448899627
2.871478077,0.1555770636,-0.9513084292,-1.540367246
2.881548878,0.2056998163,-1.041311383,-1.62654829
2.891619679,0.2538746297,-1.122489691,-1.708226204
2.901690479,0.2538746297,-1.122489691,-1.708226204
2.91176128,0.344656229,-1.26278758,-1.859919786
2.921832081,0.388811022,-1.316733003,-1.927481771
2.931902882,0.428322643,-1.350673199,-1.985829473
2.9420042,0.4576883614,-1.356997728,-2.03006959
2.952044483,0.4977413714,-1.36679709,-2.063515902
2.962115284,0.5303657055,-1.353645444,-2.084875107
2.972186085,0.550303638,-1.316645026,-2.095216513
2.982287403,0.5772843957,-1.288051844,-2.100586653
2.992327686,0.6009255052,-1.255540252,-2.100688934
3.002398487,0.6281273365,-1.229158163,-2.095458746
3.012469288,0.646394074,-1.195432425,-2.078436375
3.022540089,0.6621919274,-1.16189909,-2.042945623
3.032610889,0.673317194,-1.124643207,-1.977811337
3.04268169,0.6684834957,-1.071584463,-1.875714064
3.052752491,0.6401334405,-0.9962350726,-1.739173532
3.062823292,0.5916499496,-0.9052013159,-1.576182604
3.072894093,0.5194491744,-0.8015266657,-1.400857329
3.082964893,0.4346678555,-0.6947281361,-1.231796384
3.093035694,0.3388155699,-0.5847033858,-1.074645042
3.103106495,0.2327033728,-0.4769173563,-0.9068024755
3.113177296,0.08955918252,-0.3855998516,-0.66168046
3.123248096,-0.1132714674,-0.2809216082,-0.341948837
3.133318897,-0.3540777266,-0.142870605,0.008677884005
3.143389698,-0.5986128449,0.03662600368,0.3346331418
3.153460499,-0.8008444905,0.2139868587,0.6036509871
3.1635313,-0.9815773964,0.3865023851,0.8550537825
3.1736021,-1.136148095,0.5342276096,1.102436781
3.183672901,-1.275054812,0.6777812243,1.332575679
3.193743702,-1.398866653,0.8230617046,1.535775065
3.20384502,-1.506118655,0.9625809789,1.71960938
3.213915821,-1.598441958,1.093202233,1.891128182
3.223986622,-1.69557786,1.244030237,2.06052804
3.234057423,-1.794823527,1.417092085,2.22974062
3.244158741,-1.884473801,1.599898934,2.395738125
3.254199024,-1.960087061,1.788771272,2.555943727
3.264269825,-2.025105953,1.99196434,2.70988965
3.274340626,-2.08229208,2.214263916,2.858035564
3.284411427,-2.119385004,2.431022644,2.993517399
3.294482227,-2.130233288,2.628505945,3.111426115
3.304583546,-2.113809109,2.802521467,3.210189819
3.314623829,-2.065679073,2.938319683,3.281268597
3.324725147,-1.995901823,3.053804636,3.32430172
3.33476543,-1.899913073,3.13744092,3.329460382
3.344836231,-1.78599906,3.178509474,3.284599543
3.354907032,-1.665802121,3.199144125,3.193539381
3.364947315,-1.539764881,3.180217266,3.063642979
3.375048634,-1.427364111,3.152192831,2.918156624
3.385119434,-1.286723971,3.09192872,2.742739439
3.395190235,-1.10175395,2.999810457,2.531913519
3.405261036,-0.8795161843,2.902175665,2.299673319
3.415331837,-0.6441091895,2.802530766,2.060406208
3.425402637,-0.4278363883,2.697753668,1.818495393
3.435473438,-0.254847765,2.585813522,1.566958308
3.445544239,-0.1312224865,2.479768276,1.276225448
3.45561504,-0.04111779854,2.346966982,0.8998314142
3.465685841,0.05387978628,2.205991745,0.4909561872
3.475756641,0.1245475113,2.099347353,0.1680108011
3.485827442,0.1674956381,1.990466356,-0.07937257737
3.495898243,0.209192574,1.860990763,-0.34612602
3.505969044,0.2520026565,1.734783769,-0.5736419559
3.516039845,0.2686879337,1.617489338,-0.7468560338
3.526110645,0.2719855011,1.501502275,-0.8855618834
3.536181446,0.2769146264,1.402395606,-1.002981424
3.546252247,0.2847188413,1.306302547,-1.103033066
3.556323048,0.291810751,1.217850566,-1.175583363
3.566424366,0.3053065538,1.118898273,-1.215730429
3.576464649,0.3252343833,1.007518172,-1.224858403
3.58653545,0.3400605619,0.9080252647,-1.197894335
3.596606251,0.3449767828,0.8239940405,-1.138666868
3.606677052,0.3352610171,0.7561472654,-1.058659792
3.616747852,0.3073369265,0.7005079985,-0.9693770409
3.626818653,0.2564128041,0.6719959974,-0.8715613484
3.636889454,0.1929824054,0.6645222902,-0.7688580751
3.646960255,0.1322523057,0.6587076783,-0.6739366055
3.657031055,0.0786357522,0.6541272998,-0.6009639502
3.667101856,0.01702901348,0.6819773912,-0.4738101065
3.677172657,-0.07563403249,0.7460425496,-0.2642314732
3.687243458,-0.1641297489,0.8192026019,0.003354561748
3.697314259,-0.2525786161,0.9163038731,0.2928256691
3.707385059,-0.3044659197,0.9693365097,0.5348941088
3.71745586,-0.3319026828,0.9943751693,0.7276979089
3.727526661,-0.3497411609,1.014725804,0.8889926672
3.737597462,-0.3672991395,1.050977945,1.019132853
3.747668262,-0.3683129549,1.057333827,1.109715462
3.757739063,-0.3609805703,1.05177021,1.166675091
3.767809864,-0.3528000712,1.052427173,1.203224421
3.777880665,-0.340479672,1.047707558,1.226452351
3.787951466,-0.3161716163,1.039150596,1.231938124
3.798022266,-0.2728591859,1.019173145,1.211498976
3.808093067,-0.2133844942,1.000387907,1.160937071
3.818163868,-0.1414380074,0.9771513343,1.082693577
3.828265186,-0.0704144761,0.9541691542,0.9877339005
3.838335987,-0.01177944709,0.9287342429,0.8872945905
3.848406788,0.02755625173,0.9061401486,0.7925451398
3.858447071,0.04740474373,0.8997325301,0.7164505124
3.868517872,0.06147065014,0.8778952956,0.6252374053
3.878558155,0.06932743639,0.8577907085,0.5029776096
3.888659473,0.07624243945,0.828979671,0.3575863838
3.898669239,0.08152985573,0.7983573079,0.2129140198
3.908801075,0.08107010275,0.7850905657,0.09353733808
3.918871876,0.07857778668,0.7795650959,0.009142867289
3.928973194,0.0756297037,0.7834185362,-0.0440203473
3.939013477,0.07987646013,0.7797629237,-0.0780049935
3.949084278,0.08529814333,0.787702322,-0.09988152981
3.959155079,0.0930217132,0.7959287167,-0.1135755405
3.969256397,0.09927752614,0.8025608659,-0.1197573245
3.97929668,0.09993895143,0.8098139167,-0.1186071932
3.989367481,0.08547657728,0.8357381225,-0.1117866486
3.999438282,0.05986621231,0.8684230447,-0.1008477658
4.0095396,0.03250172734,0.8879773617,-0.0875711292
4.019579884,0.004468538798,0.9034940004,-0.07350115478
4.029650684,-0.02353081107,0.9195755124,-0.06141302362
4.039935108,-0.05018341914,0.9369146824,-0.0489798449
4.059863087,-0.09705492854,0.9933726788,0.003109542187
4.069933887,-0.1176389828,1.015636921,0.04831252247
4.080004688,-0.132290557,1.026463628,0.1033416092
4.090075489,-0.1421723515,1.013166904,0.158109501
4.10014629,-0.1510796249,1.015530109,0.2105223984
4.110217091,-0.1573069245,1.0175668,0.2584148347
4.120287891,-0.1612238288,1.022132754,0.3023700416
4.13038921,-0.1643352658,1.037820101,0.340457499
4.140429493,-0.1627259851,1.058348179,0.3698860705
4.150500294,-0.1503365338,1.06998682,0.3916795552
4.160571095,-0.1279733926,1.080916405,0.4059287608
4.170672413,-0.0959893018,1.09049058,0.4111281037
4.180712696,-0.06130399555,1.118866324,0.4060952961
4.190752979,-0.02442529239,1.159870267,0.3899363279
4.20082378,0.01418638788,1.205120802,0.3631281853
4.210894581,0.05540790409,1.248829484,0.3270869255
4.220995899,0.09628019482,1.300904393,0.2856287658
4.231097218,0.1363573372,1.370179296,0.245618552
4.241137501,0.1782721579,1.444899201,0.2102805078
4.251208302,0.2146203518,1.54386127,0.1556939185
4.261279102,0.2453427017,1.655984163,0.07813151926
4.271380421,0.2692534626,1.782640934,-0.01905117929
4.281420704,0.2892366946,1.910374999,-0.127647981
4.291491505,0.3071495891,2.037868023,-0.2393191457
4.301562305,0.3274066746,2.158548832,-0.3549894989
4.312304493,0.3535147011,2.265838385,-0.4805855155
4.322314259,0.3815685213,2.372398615,-0.6231066585
4.332354542,0.4144276977,2.456851244,-0.7918169498
4.342364307,0.4628952742,2.544427395,-0.9901052117
4.352404591,0.4892627001,2.613671303,-1.171010971
4.362414356,0.4696202576,2.688051462,-1.313497782
4.372454639,0.436343044,2.741216421,-1.441809535
4.382464405,0.4006192088,2.787966013,-1.591031432
4.392474171,0.3515651226,2.825869322,-1.759750485
4.402483936,0.2596910596,2.87436533,-1.91930604
4.422503468,-0.003810896073,3.016814232,-2.224090338
4.432543751,-0.1702958047,3.049715281,-2.351545811
4.442614552,-0.364598155,3.090491772,-2.468988657
4.452624317,-0.5770274997,3.070967913,-2.502011538
4.462695118,-0.8130830526,3.12641573,-2.573836088
4.472765919,-1.076746225,3.19630909,-2.635601521
4.48283672,-1.377353668,3.273335457,-2.686011076
4.49290752,-1.702864885,3.335181236,-2.735191345
4.502978321,-2.037478924,3.385291576,-2.766213417
4.513049122,-2.32292366,3.385042906,-2.748887777
4.523119923,-2.570312738,3.357260466,-2.696065187
4.533190723,-2.81034255,3.300821543,-2.627587318
4.543261524,-3.067353725,3.226400375,-2.548036814
4.553332325,-3.304593325,3.132189512,-2.439193487
4.563403126,-3.4961133,3.025043011,-2.298336029
4.573473927,-3.678343773,2.899214268,-2.134172201
4.583544727,-3.844236135,2.768553734,-1.959744215
4.594256397,-3.980688095,2.625809669,-1.770009995
4.60429668,-4.084463596,2.474823952,-1.56503582
4.614306446,-4.165158272,2.334151983,-1.34809649
4.624346729,-4.221848011,2.210270882,-1.120929956
4.644366261,-4.310573101,2.016804934,-0.6391348243
4.654406544,-4.227645397,1.891649008,-0.3390221596
4.664416309,-4.088659286,1.752246141,-0.0005883569829
4.674426075,-3.847077847,1.585467219,0.3479928672
4.684435841,-3.684906006,1.467102408,0.6781770587
4.694506641,-3.494063377,1.374057651,0.9748300314
4.714495655,-3.11235261,1.231184602,1.595424771
4.724535938,-2.837804317,1.131218553,1.891751766
4.734576221,-2.563859463,1.049206376,2.133807898
4.74467754,-2.242379189,0.9434552789,2.25908041
4.754748341,-1.992244601,0.8481698036,2.420900345
4.764819141,-1.755037785,0.7462127805,2.580951452
4.774889942,-1.546301126,0.658387959,2.693255424
4.784960743,-1.36566937,0.5907930732,2.748858929
4.795031544,-1.200639844,0.5270354748,2.779149055
4.805071827,-1.044588685,0.4653651714,2.795948505
4.815142628,-0.902738452,0.4210059345,2.779150009
4.825213429,-0.7743365765,0.3883385062,2.72685647
4.835253712,-0.6497873664,0.3493764102,2.657797813
4.845385548,-0.5280150771,0.3020907342,2.561410427
4.855456348,-0.4206255078,0.2597047091,2.440771103
4.865527149,-0.3320308328,0.2008198351,2.295888186
4.87559795,-0.2506298721,0.1449856609,2.134059429
4.885668751,-0.1649885625,0.1208461225,1.9651649
4.895739552,-0.06153807044,0.1112162396,1.791644573
4.905810352,0.06056846678,0.1129757762,1.618617415
4.915820118,0.1937703192,0.1117290109,1.448053002
4.925951954,0.3226227164,0.120574981,1.288786769
4.936022755,0.43466115,0.1332087368,1.149786353
4.946093555,0.5285426974,0.12345507,1.017658949
4.956194874,0.5996757746,0.1218884364,0.851177752
4.966235157,0.6491901278,0.139980346,0.6417839527
4.976336475,0.6837658882,0.1623450667,0.4238082767
4.986407276,0.7077544928,0.1932924241,0.2174337208
4.996447559,0.7208634019,0.2454385161,0.04192330316
5.00651836,0.7273563743,0.2877334058,-0.1041778773
5.016589161,0.7297160029,0.3140580356,-0.2261577994
5.026659962,0.7306616306,0.330565989,-0.3309356272
5.03676128,0.7336457968,0.3332454264,-0.4203391075
5.046801563,0.7364877462,0.3242869079,-0.4924229085
5.056872364,0.7371739745,0.2981286347,-0.5490856767
5.066943165,0.7309490442,0.2686693072,-0.592489481
5.077013966,0.7183263302,0.23117432,-0.6241858006
5.087084766,0.7014636397,0.1798709482,-0.6426339746
5.097155567,0.6819210649,0.1134444028,-0.6466373801
5.10719585,0.653341651,0.06318897009,-0.6349952221
5.117297169,0.6178504229,0.02330895327,-0.6090365648
5.12736797,0.5811074376,-0.02971945517,-0.572245717
5.13743877,0.5427168012,-0.09494940192,-0.5296631455
5.147509571,0.5034748316,-0.1578162462,-0.4836087525
5.157580372,0.4655298889,-0.2021976262,-0.436825186
5.167651173,0.4348970652,-0.2525534034,-0.3925311267
5.177721973,0.3942193687,-0.2986938953,-0.3511666656
5.187792774,0.3410490155,-0.34135741,-0.3141683042
5.197863575,0.2808323205,-0.3784800172,-0.282066375
5.207903858,0.2240385711,-0.4094445109,-0.2540467083
5.217974659,0.1789851785,-0.4282805026,-0.2246853113
5.22804546,0.1547583789,-0.454803586,-0.1956922263
5.238116261,0.1412528604,-0.4813801348,-0.1684785187
5.248187061,0.140132606,-0.5207822323,-0.1420377791
5.25828838,0.1417250335,-0.5426021814,-0.1128895208
5.26835918,0.145009473,-0.5564748049,-0.07854239643
5.278460499,0.1496810615,-0.5708647966,-0.03747229278
5.288500782,0.1580356807,-0.600802362,0.01065652538
5.298571583,0.1683270931,-0.6429951191,0.06686087698
5.308642384,0.1806920171,-0.6997427344,0.1323574781
5.318713184,0.1930308938,-0.7627187371,0.2071336806
5.328783985,0.2013304979,-0.8149386048,0.2859709859
5.338854786,0.2073908448,-0.8640754819,0.3608914316
5.348925587,0.212720111,-0.9195244908,0.4280053079
5.358996387,0.2141683996,-0.9725703597,0.4865019023
5.369067188,0.2094631195,-1.018316984,0.5380787253
5.379137989,0.199621886,-1.065802217,0.5831915736
5.38920879,0.1827929169,-1.108516335,0.622893095
5.399279591,0.1611971557,-1.158734679,0.6565483212
5.409350391,0.1337646544,-1.210027814,0.6837097406
5.419390675,0.102825284,-1.262501359,0.7033801675
5.429491993,0.06798431277,-1.304853439,0.7154639959
5.439562794,0.03102908842,-1.342652559,0.719172895
5.449633595,-0.002394614043,-1.397189379,0.7114376426
5.459704395,-0.03317258134,-1.445217252,0.6907840967
5.469775196,-0.06276952475,-1.463331223,0.6575781107
5.479845997,-0.08833397925,-1.469847083,0.6116710901
5.489916798,-0.1121956259,-1.454708576,0.5557117462
5.499987598,-0.1318072677,-1.442330599,0.4906308055
5.510058399,-0.1454797685,-1.423312187,0.4217417836
5.5201292,-0.1483749449,-1.402171612,0.3582640886
5.530200001,-0.1418587565,-1.364611745,0.3033326566
5.540270802,-0.1259974986,-1.300449491,0.209133938
5.550341602,-0.104130514,-1.202947259,0.03471805528
5.560412403,-0.0766800791,-1.060344338,-0.2338459641
5.570483204,-0.0398023501,-0.890704453,-0.5543725491
5.580554005,-0.001266594161,-0.7564143538,-0.7842187881
5.590624805,0.03675929829,-0.6462396979,-0.9614540339
5.600695606,0.08428738266,-0.5093809962,-1.180037975
5.610766407,0.140602082,-0.3251956105,-1.488325953
5.620837208,0.178687647,-0.1523675174,-1.718626261
5.630908009,0.2023681998,0.004974673968,-1.900506616
5.640978809,0.2125795782,0.2135593891,-2.13694644
5.651019093,0.2032104135,0.4448522925,-2.372392178
5.661089893,0.1714226156,0.6729320288,-2.581502438
5.671191212,0.1264744699,0.8892061114,-2.782055378
5.681262012,0.06013157591,1.114879489,-2.968057871
5.691332813,-0.04796891659,1.376847267,-3.132814884
5.701403614,-0.1952465922,1.655394673,-3.272397757
5.711474415,-0.3897063434,1.953226089,-3.387932301
5.721514698,-0.6254475713,2.250449896,-3.477964878
5.731616016,-0.8631437421,2.489840984,-3.53836298
5.741686817,-1.105438352,2.680801392,-3.582803011
5.751788136,-1.354323268,2.827329397,-3.614156008
5.761828419,-1.59332788,2.917053461,-3.603960514
5.77189922,-1.788350105,2.931672096,-3.532572508
5.78197002,-1.95144546,2.899374962,-3.41634655
5.792040821,-2.108518839,2.842461586,-3.312108278
5.802111622,-2.247296333,2.761501312,-3.192448139
5.812182423,-2.337744236,2.662966251,-3.043723583
5.822253223,-2.388789654,2.555477858,-2.859531641
5.832293507,-2.435545921,2.408496618,-2.637504578
5.842364307,-2.484690428,2.21600771,-2.385057688
5.852435108,-2.543791771,1.960188985,-2.0712924
5.862536427,-2.601546764,1.672901869,-1.708937764
5.872607227,-2.645339012,1.424286962,-1.303065538
5.882678028,-2.665039778,1.235527277,-0.8838629127
5.892779346,-2.672951698,1.064031363,-0.4229902029
5.902850147,-2.672971964,0.8860559464,0.1223022789
5.91289043,-2.665313244,0.7737585902,0.6245524287
5.922961231,-2.649061918,0.6911440492,1.127296686
5.933032032,-2.610432863,0.6297566891,1.615515947
5.943102833,-2.555329323,0.5947833657,2.077016354
5.953173634,-2.47460103,0.5733162761,2.503120184
5.963244434,-2.372415066,0.5603849292,2.897236347
5.973315235,-2.250980377,0.5491889119,3.250378847
5.983355518,-2.109540701,0.5320885777,3.558796406
5.993487354,-1.94898057,0.5087319613,3.817173004
6.003558155,-1.78586781,0.4889682829,4.017313004
6.013598438,-1.622905254,0.4829616845,4.151000023
6.023669239,-1.464423656,0.5035347939,4.217525005
6.033709522,-1.310941458,0.5501644611,4.193717003
6.043810841,-1.166014075,0.6128781438,4.068266869
6.053912159,-1.030034781,0.6860877275,3.891883612
6.063952442,-0.8875719905,0.7541805506,3.698514462
6.073962208,-0.7454503179,0.8097854853,3.483514071
6.084094044,-0.6276307106,0.872885704,3.250286818
6.094164845,-0.5311736465,0.9029381871,2.997903109
6.104235645,-0.4304501712,0.9158497453,2.736223936
6.114275929,-0.3129574358,0.9353880882,2.477458477
6.124377247,-0.1801666021,0.9623974562,2.232974768
6.134448048,-0.04236051068,0.9999338984,1.979897618
6.144488331,0.0854260996,1.060414314,1.699513435
6.154559132,0.1935811639,1.150130391,1.382965565
6.164629932,0.2794348896,1.25440824,1.056498766
6.174731251,0.3453751504,1.31726563,0.7577299476
6.184802052,0.3926271796,1.319249868,0.5055585504
6.194872852,0.4202970862,1.302718043,0.2617700696
6.204943653,0.4315425158,1.275616169,0.03399183601
6.215014454,0.4398542643,1.225920558,-0.1523179114
6.225085255,0.4490533471,1.161987662,-0.2947903872
6.235156055,0.4561845064,1.094421625,-0.4090009928
6.245226856,0.4630746543,1.020506144,-0.5082833767
6.255297657,0.4642527997,0.9587426186,-0.5963047147
6.265368458,0.4629170299,0.8982064128,-0.6731072068
6.275439259,0.4569154978,0.8423418403,-0.7340055704
6.285510059,0.4478661716,0.780125618,-0.7743356228
6.29558086,0.4333914518,0.7134742737,-0.7879604101
6.305651661,0.4161080718,0.6338186264,-0.770616293
6.315722462,0.3947026432,0.5491150618,-0.724442482
6.32582378,0.3762483001,0.4448871911,-0.6598458886
6.335833546,0.3536808491,0.3497984409,-0.5909347534
6.345934864,0.3264287412,0.2758882642,-0.5304043889
6.356005665,0.3042526543,0.2054350078,-0.4824831784
6.366076466,0.2887379229,0.1397809833,-0.4096408486
6.376147266,0.276301384,0.05941118672,-0.3074226677
6.386218067,0.2500142455,-0.03475538641,-0.1898619533
6.396288868,0.203202948,-0.1491123736,-0.08078077435
6.406359669,0.1355728209,-0.2600796223,0.007340621203
6.41643047,0.06701783091,-0.3668317497,0.08042164147
6.427172657,0.002286988311,-0.4586593211,0.1498779207
6.437182423,-0.04846135154,-0.5451169014,0.2136298567
6.457171436,-0.1217884496,-0.6574938297,0.3222512007
6.467181202,-0.1429350078,-0.6681659818,0.3588293195
6.477252003,-0.1525810212,-0.6702299714,0.3906636238
6.497302052,-0.1506214738,-0.6608444452,0.4566571414
6.507342335,-0.1401523203,-0.6671740413,0.4981635213
6.517382618,-0.1228436455,-0.689991653,0.5471217036
6.527392384,-0.09863007814,-0.7084442973,0.5873740911
6.547381397,-0.03819264844,-0.8701880574,0.7145761847
6.557391163,-0.006630183663,-0.9411042929,0.7661429644
6.567461964,0.02527038008,-1.011143804,0.8096855879
6.577563282,0.0560175404,-1.054106474,0.8221954107
6.587634083,0.08698165417,-1.123385191,0.8466806412
6.597704884,0.116913721,-1.196058035,0.8649711609
6.607745167,0.1474870741,-1.283851743,0.8778066039
6.617846485,0.1762361825,-1.376749396,0.8862220645
6.627947804,0.2039850652,-1.479429007,0.8879314065
6.637988087,0.2300931364,-1.590400338,0.8812047243
6.648058887,0.2530969381,-1.702147722,0.8653455377
6.658129688,0.2759031653,-1.831175208,0.8369002342
6.668200489,0.2951828837,-1.954424024,0.7952475548
6.67827129,0.3101387024,-2.060181379,0.7401893735
6.688342091,0.3207360506,-2.116226435,0.6766003966
6.698412891,0.3353067636,-2.144986153,0.6048986912
6.709094044,0.3551424742,-2.113826752,0.5334812403
6.719134327,0.3847576976,-2.0392313,0.4616276622
6.729144093,0.4257653952,-1.950687647,0.3912953138
6.739184376,0.4730660617,-1.856433153,0.3369531035
6.749194141,0.5216780901,-1.700368881,0.2505342364
6.769396778,0.6255905628,-0.73606354,-0.2747729719
6.789263721,0.6402210593,0.1852067709,-0.6995953918
6.799304005,0.5960180163,0.706702888,-0.9138600826
6.809344288,0.5382575393,1.389239788,-1.223652244
6.819354054,0.4289068878,1.911034703,-1.427801371
6.829394337,0.306516856,2.388789654,-1.615236521
6.83943462,0.1370124668,2.970219135,-1.875333548
6.849474903,-0.05929327384,3.490758657,-2.148543358
6.859545704,-0.2685372531,3.90739131,-2.401545286
6.869585987,-0.4743407071,4.20429039,-2.64989996
6.879656788,-0.6922984719,4.451497555,-2.884361029
6.889788624,-0.906909585,4.631083012,-3.097220421
6.899828907,-1.106073499,4.723436832,-3.287610769
6.909899708,-1.26419878,4.705316067,-3.449753046
6.920031544,-1.380281568,4.592546463,-3.581870556
6.930071827,-1.452225566,4.398952484,-3.678669453
6.940142628,-1.495209813,4.164767742,-3.730558157
6.950213429,-1.511654854,3.898442268,-3.761100292
6.960253712,-1.505470991,3.615689993,-3.758427143
6.97035503,-1.491403699,3.339883327,-3.686002254
6.980395313,-1.463941813,3.07073164,-3.55526948
6.990466114,-1.422349572,2.797568321,-3.441585064
7.000536915,-1.369610429,2.530940533,-3.314570904
7.010607716,-1.303287983,2.289668798,-3.163064957
7.020739552,-1.230692506,2.074271202,-2.981849909
7.030749317,-1.171649098,1.857086539,-2.768467903
7.040820118,-1.131983638,1.632201791,-2.53167057
7.050890919,-1.115520477,1.409014106,-2.286837339
7.06096172,-1.108225107,1.201369524,-2.028954506
7.07103252,-1.09919107,1.035654306,-1.692022681
7.081103321,-1.118114591,0.8725166917,-1.271309137
7.091174122,-1.141449094,0.7381768227,-0.8105659485
7.101244923,-1.138521075,0.6320790052,-0.3988725841
7.111315723,-1.134981632,0.5411108136,0.000838214648
7.121386524,-1.150635481,0.4514680207,0.4656209648
7.131457325,-1.169834971,0.3706405163,0.9178268313
7.141558643,-1.16379118,0.3009421527,1.258826852
7.151598927,-1.154785156,0.2324648052,1.570441842
7.161669727,-1.168061614,0.1561247408,1.975255847
7.171740528,-1.175088644,0.08683609962,2.326258421
7.181780811,-1.179972887,0.01525768545,2.646780014
7.19188213,-1.198594689,-0.05894826353,2.954497337
7.20195293,-1.22316277,-0.1344905943,3.230891228
7.212023731,-1.238670111,-0.1973731518,3.463706493
7.222094532,-1.245737553,-0.2371917516,3.63377285
7.232165333,-1.245543361,-0.24801898,3.742735863
7.242205616,-1.231455088,-0.2231898457,3.776354074
7.252337452,-1.195303917,-0.1401664019,3.65554738
7.262377735,-1.14997375,-0.02928055078,3.481654882
7.272448536,-1.093257308,0.06575646251,3.32440114
7.282519337,-1.03393507,0.1502750963,3.153669834
7.292590137,-0.956366539,0.2175755352,2.963648081
7.302660938,-0.8694473505,0.2709261775,2.758846283
7.312731739,-0.7834555507,0.295316726,2.544923306
7.32280254,-0.7020546794,0.3073956966,2.328882217
7.332873341,-0.6287299991,0.3195626438,2.115586281
7.342944141,-0.5640323758,0.3105164766,1.906692505
7.353014942,-0.5010515451,0.3139793277,1.711714625
7.363085743,-0.4213066101,0.3407160938,1.543944955
7.373156544,-0.3204001486,0.3965868354,1.314178109
7.383227345,-0.1839764714,0.4971274436,1.039586186
7.393298145,-0.07405406982,0.5744130611,0.8031663895
7.413439747,0.1218883321,0.7338812947,0.4606215656
7.42348003,0.1879007816,0.7807522416,0.3206653297
7.433550831,0.2477755696,0.8082833886,0.2045259029
7.443621632,0.3042015731,0.8022027612,0.09673513472
7.453682041,0.3696073294,0.8078793287,-0.0007740653236
7.463752842,0.436119616,0.8035465479,-0.08846003562
7.473823643,0.5006236434,0.798108995,-0.1642473489
7.483894444,0.5564561486,0.7923232913,-0.221820727
7.493965245,0.5966500044,0.7924506068,-0.253564626
7.504005528,0.6271340251,0.7602223158,-0.2582397759
7.514106846,0.6456329823,0.6860227585,-0.2403051555
7.524330235,0.6463167667,0.5846979022,-0.2132199854
7.544319248,0.6122652292,0.4042588174,-0.1577411145
7.554359532,0.5682892203,0.3509693444,-0.06609523296
7.574501133,0.4600164592,0.3064467013,0.1879008561
7.584571934,0.4058745205,0.28815642,0.2848135531
7.594642735,0.3614104092,0.2727191448,0.3492299914
7.604713536,0.3027704656,0.2340910435,0.3888743222
7.614784336,0.2341002822,0.1798237711,0.4376814067
7.62506876,0.1497281343,0.1029992029,0.478120029
7.645027256,-0.01726734266,-0.07589069754,0.4925050437
7.655067539,-0.07213945687,-0.1512986571,0.4500935972
7.665168858,-0.09396297485,-0.2033954561,0.3943569958
7.675209141,-0.08695722371,-0.2298784107,0.3362572193
7.685279942,-0.07294721901,-0.2414001077,0.2946893573
7.695350743,-0.0531318225,-0.253978461,0.2192117274
7.705421543,-0.03023620509,-0.2731874585,0.1058174223
7.715492344,-0.008330985904,-0.2948386073,-0.02549299411
7.725837803,0.01273267623,-0.3263452649,-0.1413297951
7.745704746,0.05169259012,-0.4168845415,-0.2641883492
7.755836582,0.07493051142,-0.4583461285,-0.2846886814
7.765907383,0.1017906517,-0.4978972077,-0.2966289818
7.775978184,0.1269200295,-0.5154050589,-0.2953703105
7.786048985,0.1517277211,-0.5273649693,-0.2941761017
7.796119786,0.1742841452,-0.5391116142,-0.2852270901
7.806190586,0.1964386255,-0.5753771663,-0.2687190473
7.816261387,0.2126401216,-0.6301985979,-0.246795401
7.826759434,0.2178523839,-0.6810110807,-0.2223267257
7.846473789,0.2328289002,-0.8064496517,-0.1768755764
7.85654459,0.2420870066,-0.8856004477,-0.1540942192
7.866615391,0.2389218658,-1.021382689,-0.1347497553
7.876655674,0.2127963454,-1.170080185,-0.1169088036
7.886726475,0.1788204759,-1.342918277,-0.1078264862
7.896797276,0.1549779624,-1.52798903,-0.0998333618
7.906837559,0.1503493339,-1.694185853,-0.0884373337
7.916969395,0.1609386802,-1.886489153,-0.07736922055
7.927589512,0.1809581071,-2.107080221,-0.07940024137
7.947181797,0.2261402607,-2.556153059,-0.1794572175
7.957252598,0.2486481816,-2.709504128,-0.2967735827
7.967292881,0.2670035362,-2.808858633,-0.4603420794
7.977424717,0.2725015283,-2.833443403,-0.6515448093
7.987465,0.2505137026,-2.924767017,-0.9232041836
7.997535801,0.2205011994,-2.954591513,-1.236988068
8.007606602,0.2083584219,-2.932646275,-1.502061009
8.017677403,0.2065750957,-2.887661695,-1.738084912
8.02841959,0.1854437292,-2.814012766,-2.036584616
8.04782877,0.1560344845,-2.727693796,-2.662337303
8.057991123,0.1318995804,-2.631944895,-2.928981543
8.068031407,0.1077343747,-2.532131672,-3.184978008
8.078102207,0.08446986973,-2.367623806,-3.340042114
8.088142491,0.07367574424,-2.26594615,-3.55466795
8.098243809,0.0819676742,-2.17699337,-3.746948004
8.10831461,0.1060350761,-2.089130402,-3.912452936
8.118385411,0.154215157,-2.008666039,-4.053462505
8.129249668,0.2281102538,-1.93633914,-4.166921139
8.148597813,0.4353784323,-1.848701954,-4.399101734
8.158668614,0.5667907,-1.79343009,-4.349668026
8.168739414,0.7023662329,-1.739097953,-4.257904053
8.178779698,0.8050978184,-1.633728862,-4.075994015
8.188881016,0.9291759133,-1.574583054,-4.003576756
8.198951817,1.048127532,-1.517430425,-3.901409864
8.219093418,1.320952296,-1.471448898,-3.687727928
8.230049229,1.445053458,-1.424433231,-3.467980623
8.249305821,1.777195215,-1.324620962,-3.016190529
8.259376621,1.94729507,-1.231998682,-2.66808176
8.269447422,2.123663425,-1.157943845,-2.257107258
8.279518223,2.227912664,-1.09411788,-1.784524679
8.289558506,2.327443361,-1.055451512,-1.335906386
8.299659825,2.525455475,-1.059278488,-0.8655304909
8.309730625,2.747578621,-1.081225395,-0.3718350828
8.319770909,2.971746206,-1.125639796,0.07618159801
8.329780674,3.212993622,-1.196873903,0.5174483657
8.340095616,3.460650682,-1.291141987,0.9429103136
8.360054112,4.062226295,-1.639569402,1.75709486
8.370430088,4.276709557,-1.848551035,2.102359772
8.390266514,4.544996262,-2.29314518,2.669400692
8.400337315,4.600560665,-2.511702538,2.881547689
8.410408116,4.617100716,-2.728560448,3.050943375
8.420478916,4.464725494,-2.846765757,3.070013762
8.430549717,4.390035629,-3.012241602,3.122020721
8.440895176,4.289868355,-3.165228844,3.16686058
8.46076212,4.106469631,-3.498399973,3.265734434
8.47083292,3.914597511,-3.56887579,3.224411726
8.480903721,3.714165688,-3.625370979,3.184903622
8.490974522,3.417248249,-3.567592621,3.072052717
8.501045323,3.206898212,-3.577209711,3.022402287
8.511116123,2.991821051,-3.566223383,2.969091892
8.521827793,2.777007341,-3.529811382,2.901939154
8.531837559,2.569525003,-3.484186172,2.815853119
8.543251133,2.309836388,-3.335639477,2.644752741
8.562385655,2.047256231,-3.309705973,2.532068014
8.582191563,1.860686541,-3.332260847,2.457967758
8.601997471,1.537310123,-3.008172512,2.156150818
8.622017002,1.226771712,-2.584498167,1.795891523
8.632026768,1.069154739,-2.353954792,1.592313528
8.642067051,0.9114685059,-2.137271881,1.394017935
8.652107334,0.7531909347,-1.931870699,1.20642674
8.662178135,0.6146913171,-1.778503776,1.064390302
8.672248936,0.483500421,-1.640135646,0.9432535172
8.682319737,0.3674182892,-1.513773084,0.834984839
8.692390538,0.269724071,-1.387230039,0.7028509974
8.702461338,0.1888464242,-1.259035945,0.548317492
8.712532139,0.1208690777,-1.127251267,0.3893270791
8.72260294,0.06526922435,-1.000599623,0.242353335
8.732704258,0.0227966737,-0.8884391785,0.1145192012
8.742775059,-0.006749346387,-0.7924363017,0.006014907267
8.75284586,-0.02651747875,-0.7033449411,-0.08546485752
8.762916661,-0.03794301301,-0.6288769841,-0.1639927775
8.772987461,-0.04459974915,-0.55746454,-0.2354816198
8.783699131,-0.04752130434,-0.4922325611,-0.2995947003
8.793739414,-0.04700894281,-0.432995826,-0.3520045877
8.813758946,-0.03556198627,-0.3490280509,-0.4378350675
8.823768711,-0.02515888214,-0.3244656622,-0.4648931324
8.833808995,-0.01578738354,-0.3128040433,-0.4840759635
8.843849278,0.011192373,-0.3085077107,-0.4822996855
8.853889561,0.06058249623,-0.3284888268,-0.4878530204
8.863899327,0.1270484328,-0.349109441,-0.4877442718
8.87393961,0.2045992911,-0.3836802542,-0.4779886901
8.883949375,0.279900074,-0.4193701446,-0.4577608407
8.903999424,0.4073536694,-0.4818089306,-0.4025379121
8.914039707,0.4521172047,-0.4978721142,-0.3655928671
8.924079991,0.4913353324,-0.5199366808,-0.3291532099
8.934150791,0.5091047287,-0.5149550438,-0.2865234017
8.944191075,0.5368086696,-0.5348389149,-0.2526284754
8.954261875,0.5606025457,-0.5618674755,-0.2206597626
8.964332676,0.5743361712,-0.579785645,-0.1928341687
8.974403477,0.5771912336,-0.5936407447,-0.1598881632
8.984474278,0.5674961805,-0.5969715714,-0.1197517216
8.994545079,0.5500312448,-0.5987846851,-0.07339247316
9.004615879,0.5250838995,-0.5880406499,-0.02476522885
9.01468668,0.4981408715,-0.5819199681,0.02626380883
9.024757481,0.4676866233,-0.5723459125,0.07575787604
9.034828282,0.4370483756,-0.5759922862,0.1173041314
9.044899082,0.4032008648,-0.5751826167,0.1461028457
9.054969883,0.3698414564,-0.5708173513,0.1657938063
9.065040684,0.3427106142,-0.5654710531,0.1828227937
9.075111485,0.3002374172,-0.5551573038,0.1985221505
9.085151768,0.2367078215,-0.5503286123,0.2103951126
9.095222569,0.1568005532,-0.5490365624,0.2172320634
9.10529337,0.07527790964,-0.5562229753,0.2201292515
9.11536417,0.000812103739,-0.5537596345,0.2201904655
9.125434971,-0.05690576136,-0.5540135503,0.2202713639
9.135505772,-0.09542118013,-0.5769292712,0.224069804
9.145576573,-0.1272192895,-0.6019852161,0.2317211181
9.155647373,-0.1582194865,-0.6242242455,0.2424994111
9.165718174,-0.1903475225,-0.637465179,0.2540121377
9.175788975,-0.2227333486,-0.6459159851,0.2628243566
9.185859776,-0.2563406229,-0.6390033364,0.2655129433
9.195930577,-0.2877989709,-0.6264038086,0.2609713972
9.206001377,-0.3132572472,-0.6258307695,0.249988243
9.216072178,-0.3331195116,-0.6297395229,0.2337254435
9.226142979,-0.3450955153,-0.6339053512,0.2141750753
9.23621378,-0.3506349325,-0.6349797249,0.1939054728
9.24628458,-0.3572155535,-0.6398941875,0.1754432619
9.256355381,-0.3672023416,-0.6454933882,0.1611403525
9.266426182,-0.3790870309,-0.6593159437,0.1429826468
9.276496983,-0.3911116719,-0.6697693467,0.1111250669
9.286567784,-0.3987539113,-0.6890639663,0.0610107705
9.296638584,-0.4013852775,-0.7174029946,-0.006591511425
9.306709385,-0.4022174478,-0.7442178726,-0.08459745347
9.316780186,-0.3968090415,-0.7938655615,-0.1622000188
9.326850987,-0.388320446,-0.8583624363,-0.2291347533
9.336952305,-0.3792808056,-0.9427040219,-0.2793899179
9.346992588,-0.3754160106,-1.026509166,-0.3103425205
9.357063389,-0.3721727133,-1.122307062,-0.3264236748
9.36713419,-0.3706311584,-1.221695423,-0.3327698708
9.377204991,-0.3729072511,-1.302859545,-0.3346453011
9.387275791,-0.3733795881,-1.3704561,-0.3377261758
9.407417393,-0.3696697354,-1.491112113,-0.3681684732
9.417488194,-0.344686836,-1.535941601,-0.3962983787
9.427589512,-0.3116752207,-1.561723113,-0.4397567809
9.437629795,-0.2647826076,-1.533611059,-0.4899478555
9.447700596,-0.2207230926,-1.525804281,-0.5696530342
9.457771397,-0.1699418575,-1.512763262,-0.6650482416
9.467842198,-0.1131584793,-1.502266049,-0.7687512636
9.477912998,-0.05652264133,-1.495459676,-0.8904904723
9.487983799,-0.006365368608,-1.489118457,-1.051590085
9.4980546,0.05612846091,-1.463133693,-1.277408838
9.508125401,0.1499011368,-1.410558224,-1.550128222
9.518196202,0.2507357895,-1.364680052,-1.760164261
9.528236485,0.3474993706,-1.315607309,-1.941266894
9.538337803,0.4571564496,-1.253999352,-2.183447123
9.548408604,0.5661825538,-1.196148396,-2.413532734
9.558479405,0.6611110568,-1.136090875,-2.604498148
9.568550205,0.7380716801,-1.057925224,-2.788784266
9.578621006,0.8052058816,-0.9823419452,-2.964271307
9.588691807,0.8595452309,-0.9007124305,-3.129299641
9.598762608,0.8942071795,-0.806381166,-3.282624245
9.608833409,0.927431643,-0.7196598649,-3.424728394
9.618904209,0.9654904604,-0.6469128728,-3.552601099
9.62897501,1.017093658,-0.5954163671,-3.661857367
9.639045811,1.084000945,-0.5624753237,-3.749533176
9.649116612,1.163170815,-0.5495501161,-3.802351475
9.659187413,1.245939851,-0.5498828292,-3.814887762
9.669258213,1.352691531,-0.5731796622,-3.807714939
9.679329014,1.474287033,-0.611541152,-3.77780056
9.689399815,1.611595154,-0.6734139323,-3.703845501
9.699470616,1.768269062,-0.756682992,-3.611930609
9.709541416,2.001991272,-0.8860895038,-3.51996994
9.719612217,2.29503417,-1.044512987,-3.406078339
9.729713536,2.653299809,-1.227340817,-3.264769077
9.739784336,3.064418316,-1.422263622,-3.088641644
9.749855137,3.506569862,-1.619480371,-2.875154257
9.759956455,3.899161816,-1.786400557,-2.634721041
9.769996739,3.971531868,-1.909409285,-2.296624422
9.780067539,3.931155682,-1.979626775,-1.923950076
9.79013834,3.905002832,-2.026698589,-1.556486845
9.800209141,3.729897499,-2.021451712,-1.164677382
9.810310459,3.083910227,-1.875811815,-0.6027265787
9.820350743,2.401083708,-1.682004929,-0.06475992501
9.830391026,1.714717388,-1.458689332,0.4860059023
9.840461827,0.9461832047,-1.154291987,1.080946326
9.850532627,0.1951773912,-0.7973061204,1.705150008
9.860603428,-0.4589630067,-0.4183706939,2.33348608
9.870704746,-0.9635003805,-0.05585858598,2.935553551
9.88074503,-1.299789906,0.2566453815,3.486976147
9.89081583,-1.505884647,0.5179671645,3.975135326
9.900886631,-1.607397318,0.7166428566,4.385761738
9.910957432,-1.655451775,0.8787177801,4.711458206
9.921028233,-1.666837215,1.004567504,4.965778351
9.931129551,-1.662399292,1.107114196,5.158527374
9.941169834,-1.634978056,1.180152297,5.292870522
9.951240635,-1.581849337,1.229258776,5.356323719
9.961311436,-1.502318621,1.241239548,5.333252907
9.971382237,-1.402771235,1.215957522,5.224054337
9.981453038,-1.302662134,1.19500339,5.041896343
9.991523838,-1.212222219,1.200820684,4.763885021
10.00159464,-1.131869555,1.233349323,4.446527958
10.01166544,-1.055150986,1.291330576,4.150922298
10.02173624,-0.9808180332,1.332749486,3.867671013
10.03180704,-0.895616889,1.34824717,3.584113598
10.04187784,-0.8078619242,1.344685674,3.297485352
10.05194864,-0.7328472733,1.342887282,3.010421991
10.06201944,-0.6623186469,1.313476801,2.722138882
10.07209024,-0.5979166031,1.284611464,2.448941469
10.08216105,-0.5404440761,1.232813478,2.201412678
10.09223185,-0.4883146584,1.185543895,1.980357647
10.10230265,-0.3422378004,1.089995146,1.60394454
10.11237345,-0.2053601742,1.011743665,1.24352181
10.12244425,-0.1051768586,0.9530243874,0.9587251544
10.13251505,-0.03993245587,0.907959044,0.6946915388
10.14258585,0.04065458849,0.8578013778,0.4642460346
10.15265665,0.1310947686,0.7889128923,0.2895640433
10.16272745,0.2205198705,0.7177189589,0.1508661509
10.17279825,0.3085713685,0.6422162056,0.02688613907
10.18286905,0.3987097144,0.5545358658,-0.08994200826
10.19293985,0.4880909026,0.4687333107,-0.193166241
10.20301066,0.574008286,0.3879554868,-0.2730579078
10.21308146,0.6540827155,0.3057407141,-0.3248354197
10.22315226,0.7227299213,0.2314223349,-0.3452702165
10.23322306,0.7777810097,0.1643535942,-0.3384087384
10.24329386,0.8166977167,0.1087495834,-0.3109773099
10.25336466,0.8380177021,0.05985148251,-0.2729811668
10.26346598,0.8388027549,0.02699429728,-0.2387081981
10.27353678,0.8214817643,0.006785074715,-0.210223645
10.28360758,0.7912780046,-0.009833948687,-0.1383728534
10.29367838,0.750708282,-0.02015589364,-0.01797186583
10.30374918,0.7021752,-0.01867180876,0.1253867596
10.31381998,0.6482917666,-0.01215700805,0.2493597418
10.32389078,0.5902932286,-0.002357999329,0.3346875906
10.33396158,0.5311481357,0.007345193531,0.3929828107
10.34403238,0.4744734764,0.01787752099,0.4297721088
10.35410318,0.424797684,0.02273838595,0.4523591697
10.36417398,0.37714082,0.02874483541,0.4542547464
10.37421427,0.3199181855,0.03000977263,0.4296972156
10.38431559,0.2488007247,0.03494885564,0.3871305585
10.39438639,0.1691960394,0.03591436893,0.3355274796
10.40445719,0.09306508303,0.03115398809,0.2825413942
10.42459879,-0.006916853599,0.01028288342,0.211818248
10.43466959,-0.03232146427,-0.005165307783,0.1316729784
10.44474039,-0.04670704901,-0.02382520214,-0.003104600357
10.45478067,-0.05437324196,-0.03469641879,-0.1604311466
10.46488199,-0.05914572626,-0.04882021621,-0.31480667
10.47495279,-0.06131168082,-0.06116712838,-0.4471683204
10.48502359,-0.06192079186,-0.06856887043,-0.5488188267
10.49512491,-0.06219993159,-0.07269209623,-0.6218943
10.5051652,-0.06346208602,-0.07619576156,-0.6735639572
10.515236,-0.0659711957,-0.08227539808,-0.7109122276
10.5253068,-0.06925036758,-0.0893619433,-0.7364909649
10.5353776,-0.07264812291,-0.09747582674,-0.751665473
10.54541788,-0.07676462084,-0.1072046161,-0.7575918436
10.55548868,-0.08269891888,-0.1218309328,-0.7554305792
10.56555948,-0.09293235093,-0.1394002736,-0.7391494513
10.5756608,-0.1086427048,-0.1619781405,-0.7055877447
10.5857316,-0.13043648,-0.1904137433,-0.6557494402
10.5958024,-0.1594945341,-0.2246220857,-0.5946061611
10.6058732,-0.1958004385,-0.2690487206,-0.5280024409
10.615944,-0.244344458,-0.3077125549,-0.4609040618
10.6268693,-0.2989394367,-0.3630180657,-0.3967846334
10.64612589,-0.4436323345,-0.5291531086,-0.3003189266
10.65683756,-0.5066721439,-0.6250827312,-0.253747046
10.66684732,-0.5639955401,-0.7294086814,-0.2143030316
10.67688761,-0.5919738412,-0.8350923061,-0.1803153157
10.68692789,-0.6082187295,-0.9412095547,-0.1582981348
10.7069169,-0.6542630196,-1.228615046,-0.1571089923
10.71701822,-0.6604248881,-1.339851499,-0.1681240797
10.72705851,-0.6589187384,-1.440808415,-0.1832642704
10.747017,-0.6227487922,-1.595576525,-0.3176271021
10.7570878,-0.5890788436,-1.635029316,-0.5566072464
10.76712809,-0.5862349868,-1.660235643,-0.8497587442
10.77716837,-0.5541479588,-1.643370867,-1.07185173
10.78760538,-0.5052341223,-1.680299044,-1.272481322
10.80750284,-0.4078318179,-1.812109709,-1.936382771
10.82746134,-0.1923036724,-1.901136279,-2.49038744
10.83756266,-0.05413116515,-1.87129724,-2.681860447
10.84757242,0.07377392054,-1.813686609,-2.868375063
10.85758219,0.2031831294,-1.754258513,-3.008775234
10.86768351,0.3434817791,-1.731644988,-3.210112572
10.87778482,0.5075255632,-1.719370127,-3.404765129
10.88788614,0.6989405155,-1.718733668,-3.587064981
10.89792643,0.924546659,-1.732378602,-3.756659031
10.90799723,1.18891716,-1.762281418,-3.904460907
10.91806803,1.463743448,-1.792481303,-3.985894442
10.92881022,1.728794217,-1.817708492,-4.002728462
10.93881998,1.987788677,-1.840195179,-3.988670588
10.95883951,2.596500158,-1.984403372,-4.006523609
10.96891031,2.842464447,-2.041931391,-3.933600187
10.98892984,3.273224592,-2.164611816,-3.701225519
11.00894938,3.687055826,-2.238042355,-3.379851341
11.01902018,3.672388077,-2.153250933,-3.018369913
11.02902994,3.57585001,-2.063225508,-2.594996452
11.03903971,3.300885916,-1.892795324,-2.038178205
11.04907999,3.047865391,-1.777428508,-1.512396097
11.05908976,2.758154392,-1.673698306,-0.9695426226
11.06913004,2.371749163,-1.542413712,-0.344718039
11.07923136,1.939851165,-1.384369612,0.3049251437
11.08927164,1.529969811,-1.21221447,0.9304896593
11.09934244,1.117875457,-1.005344868,1.570866585
11.10941324,0.7301990986,-0.7721357346,2.200507879
11.11948404,0.39209795,-0.5269167423,2.795805216
11.12955484,0.1125513688,-0.2831022143,3.336277962
11.13962564,-0.1110564321,-0.04988218471,3.80628109
11.14969645,-0.2855359316,0.1584718972,4.193360329
11.15976725,-0.4308701754,0.3409702182,4.497688293
11.16983805,-0.5521752834,0.5017887354,4.724451065
11.17990885,-0.653188765,0.652736187,4.878648758
11.18997965,-0.7214831114,0.7820607424,4.953739643
11.20008097,-0.7633917928,0.9055002928,4.955882072
11.21012125,-0.7800344825,1.011556506,4.883774757
11.22019205,-0.7666524053,1.080722928,4.723788261
11.23026285,-0.7224785686,1.083506823,4.45217514
11.24033365,-0.6678231359,1.075229526,4.159300804
11.25040445,-0.6071305275,1.062903881,3.882676601
11.26047525,-0.5467501283,1.064145446,3.605995655
11.27057657,-0.4850986004,1.094721675,3.327531576
11.28061686,-0.4338068664,1.149398088,3.048579931
11.29068766,-0.3885759711,1.183611155,2.766002655
11.30075846,-0.3481323123,1.193251252,2.48997283
11.31082926,-0.3135469556,1.188827515,2.241481066
11.32090006,-0.2857747674,1.176536441,2.022537947
11.33097086,-0.1613104194,1.061876297,1.600342155
11.34104166,-0.02599317953,0.9204278588,1.17420423
11.35111246,0.08266277611,0.7926127911,0.8240334988
11.36118326,0.1666686982,0.6852093935,0.5346081257
11.37125406,0.2559447587,0.5753270388,0.2296617776
11.38132486,0.356713742,0.4787129164,-0.03069214337
11.39139566,0.4344572425,0.3984894753,-0.2392350882
11.40146646,0.4977073669,0.3221334815,-0.4107722938
11.41153727,0.5657886267,0.25414294,-0.5535259843
11.42154703,0.650875926,0.1680811197,-0.6761808395
11.43167887,0.7324908972,0.09456574917,-0.772167623
11.44174967,0.8150556684,0.02972709946,-0.8383222222
11.45182047,0.8960072994,-0.03366103396,-0.8727951646
11.46189127,0.9680747986,-0.09416491538,-0.8767485619
11.47193155,1.023897171,-0.1305680275,-0.8472267985
11.48197184,1.061215997,-0.1553366333,-0.7903913856
11.49210367,1.077241659,-0.1743167043,-0.7152611017
11.50217447,1.069366932,-0.1767794341,-0.6325854659
11.51224527,1.040578604,-0.1770435721,-0.5587422848
11.52231608,0.9941985011,-0.1754990071,-0.4896651506
11.53235636,0.9260316491,-0.1345774978,-0.3614977002
11.54242716,0.8396917582,-0.04264521599,-0.1503419876
11.55246744,0.7470690608,0.06820195168,0.08588010818
11.56250773,0.6555905938,0.1726627499,0.3167985678
11.57251749,0.569966495,0.2567126453,0.5078102946
11.5829545,0.4972447753,0.3181816638,0.6511195302
11.60285196,0.3851239383,0.416698873,0.8580116034
11.61292276,0.3072677851,0.4437322021,0.9077090621
11.62299357,0.2129051983,0.4553386271,0.9262084961
11.63303385,0.1031023562,0.446154058,0.8975380659
11.64310465,-0.003364240751,0.4505080283,0.8733474016
11.65317545,-0.09869646281,0.4471711814,0.8336609006
11.66321573,-0.1736522317,0.4338126183,0.7808493972
11.67331705,-0.222992599,0.4162073731,0.7166693807
11.68335733,-0.2493938655,0.3821845651,0.6447985172
11.69342814,-0.2623748779,0.3469697237,0.5727797151
11.70349894,-0.271669656,0.3190271556,0.5103688836
11.71356974,-0.2827498019,0.3011049926,0.4514140189
11.72364054,-0.2957037985,0.2818907797,0.3713449836
11.73371134,-0.3082299531,0.2543463409,0.267605722
11.74378214,-0.3188672066,0.2255018651,0.1492740363
11.75385294,-0.3256004453,0.1976523995,0.02911740728
11.76392374,-0.3277927637,0.1742155552,-0.08257826418
11.77399454,-0.3280017376,0.1604644954,-0.1828637272
11.78409586,-0.3267457783,0.1423123628,-0.2763873041
11.79416666,-0.3256492317,0.1285862923,-0.3633288145
11.80420694,-0.3257498145,0.1193587929,-0.4405967295
11.81427774,-0.3266741633,0.114314802,-0.5053372383
11.82437906,-0.3318244517,0.1067134142,-0.5548508167
11.83444986,-0.3427919745,0.09375350922,-0.5892970562
11.84449015,-0.3585318625,0.07617322356,-0.6104110479
11.85456095,-0.3763439059,0.04481207579,-0.6226312518
11.86463175,-0.3963215351,0.009166404605,-0.6307002306
11.87470255,-0.4160672426,-0.03824741393,-0.6376998425
11.88480387,-0.4342188239,-0.08791585267,-0.6452658176
11.89484415,-0.4475495219,-0.1488900781,-0.6556411982
11.90494547,-0.4556429684,-0.22315377,-0.6704403758
11.91501627,-0.4564781189,-0.3310807943,-0.6900628209
11.92508707,-0.4537663758,-0.4557824433,-0.7124099135
11.93515787,-0.44786641,-0.5815844536,-0.7370452285
11.94522867,-0.4383691549,-0.6922315359,-0.7654762864
11.95529947,-0.4236151278,-0.78398633,-0.80156672
11.96537027,-0.4020765126,-0.8567922115,-0.8496174216
11.97544108,-0.3685725629,-0.929969728,-0.9116782546
11.98551188,-0.3205801547,-1.012274504,-0.9850965142
11.99564371,-0.2638964057,-1.104804397,-1.076926112
12.005684,-0.2092587799,-1.187966585,-1.192242146
12.0157548,-0.158051759,-1.296393394,-1.332906008
12.0258256,-0.09567350894,-1.389324665,-1.485060096
12.0358964,-0.01174031757,-1.490298152,-1.634786606
12.0459672,0.08156737685,-1.583685994,-1.783173084
12.056038,0.1867380142,-1.681190848,-1.953210592
12.0661088,0.3074472547,-1.767978907,-2.141012669
12.0761796,0.4433525503,-1.845479846,-2.313272715
12.08628092,0.5830771327,-1.903085828,-2.456227541
12.09635172,0.7292010188,-1.947190642,-2.5931952
12.10642252,0.8882570267,-1.985080123,-2.740953684
12.11649332,1.050680041,-2.007688522,-2.873890162
12.12656412,1.190442204,-1.991400123,-2.966647387
12.13663492,1.316834569,-1.952383876,-3.034812689
12.14670572,1.45300746,-1.918806911,-3.101445913
12.15677652,1.580411911,-1.877827644,-3.154896736
12.16681681,1.685803413,-1.827170849,-3.175848961
12.17691812,1.773384452,-1.774977088,-3.170422316
12.18698893,1.849027157,-1.727822185,-3.147401333
12.19705973,1.908284903,-1.685247302,-3.118767023
12.20713053,1.939812541,-1.64430666,-3.063328028
12.21720133,1.938511848,-1.602995992,-2.981323957
12.22727213,1.915595174,-1.558547974,-2.867664814
12.23734293,1.867607951,-1.502138734,-2.718556643
12.24741373,1.807905555,-1.447493196,-2.537165403
12.25748453,1.717733145,-1.376437783,-2.332685947
12.26755533,1.612649202,-1.298737526,-2.1102314
12.27762613,1.376396775,-1.261339784,-1.741837621
12.28769693,1.084723473,-1.24068141,-1.298382401
12.29776774,0.7887735367,-1.203224659,-0.8320288658
12.30783854,0.5141826868,-1.137229323,-0.3770637512
12.31790934,0.2059589326,-1.038477302,0.1462040097
12.32798014,-0.1362798661,-0.8968642354,0.7484144568
12.33805094,-0.4425192177,-0.7014913559,1.298651338
12.34812174,-0.7245161533,-0.4631876647,1.855760336
12.35819254,-0.9683356285,-0.1802271754,2.400313377
12.36826334,-1.159839869,0.1135166511,2.899656057
12.37833414,-1.298899174,0.4053497016,3.309549332
12.38837442,-1.390861988,0.6938545704,3.627293825
12.39847574,-1.449603438,0.9887699485,3.862680435
12.40854654,-1.465540051,1.252620101,4.007943153
12.41861734,-1.442236662,1.465977788,4.02430439
12.42868814,-1.386906505,1.628284931,3.957512856
12.43875895,-1.304689646,1.745499134,3.849455357
12.44882975,-1.206992388,1.828058004,3.698408604
12.45890055,-1.101872563,1.880057812,3.502536297
12.46897135,-0.9914387465,1.897381902,3.279522657
12.47904215,-0.8960408568,1.918271542,3.048168898
12.48908243,-0.8134754896,1.9137007,2.811859608
12.49915323,-0.7451988459,1.888945222,2.574414253
12.50922403,-0.6796069741,1.853981495,2.343667507
12.51932535,-0.6122903824,1.82684958,2.139390469
12.52936564,-0.5328086615,1.77372098,1.890213847
12.53940592,-0.389013797,1.651414275,1.520064473
12.54947672,-0.2556156516,1.528586149,1.185026526
12.55954752,-0.157971859,1.412565708,0.911090076
12.56961832,-0.06637757272,1.280584931,0.6251823306
12.57968912,0.03061319515,1.131600499,0.3595196307
12.58979044,0.1164708585,0.9946917892,0.1444936842
12.59983072,0.182014212,0.8882195354,-0.01677455194
12.60990152,0.2353954911,0.7864047289,-0.1411605775
12.62000284,0.2743457556,0.6947508454,-0.2372210026
12.63007364,0.3029474914,0.6089975834,-0.310231328
12.64014444,0.3278879821,0.5215834975,-0.3650143147
12.65018473,0.3443365395,0.4615356326,-0.3956807852
12.66028605,0.3552987278,0.4202434421,-0.3997462392
12.67032633,0.3618993163,0.3890549541,-0.3789563477
12.68039713,0.3608164489,0.3707391024,-0.3448438942
12.69046793,0.351072073,0.3626941144,-0.3157773614
12.70053873,0.3282269239,0.3792247474,-0.2338526994
12.71060953,0.2815428972,0.468888402,-0.03203148767
12.72068033,0.2440432012,0.5385536551,0.1573698223
12.73078165,0.2048793584,0.6184588671,0.376032263
12.74085245,0.1719204634,0.6935217977,0.5885870457
12.75092325,0.1416974813,0.7494978905,0.7654985785
12.76157389,0.1211575493,0.7704003453,0.8979507685
12.77161417,0.1088125855,0.7760440111,0.9872777462
12.78171549,0.1043225899,0.7699667811,1.040611982
12.79175577,0.1050928459,0.7590292096,1.062785745
12.81180582,0.1194018126,0.7402462363,1.074075937
12.82181559,0.1253292412,0.7104170322,1.035419345
12.83185587,0.1297795922,0.6682268381,0.9736090899
12.84186564,0.1285212785,0.599994123,0.8721963763
12.85190592,0.125755921,0.5541903973,0.7865242958
12.86191568,0.1187228709,0.5098379254,0.7011016607
12.87192545,0.1087236106,0.4686912596,0.6237009764
12.88196573,0.09492234141,0.4490705729,0.5598705411
12.89200602,0.08350308985,0.4232583642,0.4794265032
12.9020463,0.07761785388,0.3810175657,0.3738212585
12.9121171,0.07599871606,0.333889246,0.2492137551
12.92215738,0.07892537862,0.2781208754,0.1181714982
12.93222818,0.08276576549,0.2262349725,-0.001208057511
12.94229898,0.08853379637,0.1821295172,-0.09935431927
12.95236979,0.1048510373,0.1266840398,-0.1824943721
12.96244059,0.1294286102,0.08426439762,-0.2529105544
12.97251139,0.159559235,0.05584961548,-0.3118849099
12.98258219,0.1923485249,0.02806458808,-0.3618276417
12.99262247,0.2205290496,0.002302275738,-0.4033428133
13.00272379,0.2389120311,-0.02501984686,-0.4367275238
13.01279459,0.2434812337,-0.04871894047,-0.4605026245
13.02286539,0.2336811423,-0.06198205799,-0.4706084728
13.03293619,0.2152191997,-0.07641648501,-0.4670903385
13.04300699,0.1920706928,-0.09363239259,-0.4526593983
13.05368814,0.1679742485,-0.1082867533,-0.4325780571
13.06372843,0.1511954665,-0.121155262,-0.4107952416
13.07373819,0.1288339347,-0.1316539645,-0.3907180727
13.09369669,0.006387297995,-0.213407129,-0.3749523163
13.10379801,-0.07893235236,-0.3012510836,-0.3749957085
13.11383829,-0.1643263996,-0.3991223574,-0.3870557249
13.12384806,-0.2250023484,-0.509734869,-0.4031311572
13.13385782,-0.2690011263,-0.6427456737,-0.4434120953
13.14386759,-0.2947834134,-0.775798738,-0.4971817434
13.15390787,-0.3045013845,-0.9039344788,-0.5636017323
13.16394816,-0.2980046272,-1.045724154,-0.6516870856
13.17395792,-0.2745278776,-1.21814096,-0.7669292688
13.1839982,-0.2407265604,-1.412148595,-0.9048090577
13.194069,-0.223601386,-1.617558599,-1.060897827
13.2041398,-0.1845641434,-1.845003128,-1.210729241
13.21421061,-0.1198093519,-2.075470448,-1.338124514
13.22428141,-0.04584347457,-2.303408623,-1.47309351
13.23435221,0.04306695983,-2.563411951,-1.646943808
13.24442301,0.1525524408,-2.822519541,-1.830011368
13.25449381,0.2813475132,-3.040788174,-1.977248669
13.26456461,0.4313164055,-3.239991188,-2.105768919
13.27463541,0.5958382487,-3.429741383,-2.259841442
13.28470621,0.7899719477,-3.626621485,-2.443033934
13.29477701,0.9820563197,-3.755198956,-2.586752892
13.30484781,1.171445847,-3.832028866,-2.677423239
13.3148881,1.356812239,-3.872603655,-2.765765667
13.3249589,1.539007187,-3.874923468,-2.851453304
13.33506022,1.710401058,-3.848063231,-2.907414436
13.34513102,1.856757402,-3.779740334,-2.934400082
13.35520182,1.990450501,-3.695909262,-2.93856883
13.36527262,2.090816498,-3.588667393,-2.911932945
13.37534342,2.160429955,-3.479604721,-2.855715513
13.38541422,2.2183218,-3.345468521,-2.760712624
13.39548502,2.274413824,-3.189638615,-2.628256798
13.40555582,2.315214396,-3.001951456,-2.459145546
13.41562662,2.354990721,-2.810422659,-2.266483068
13.42569742,2.383562088,-2.619413137,-2.061082363
13.43576822,2.40942359,-2.44803071,-1.862275481
13.44583902,2.424706459,-2.293109179,-1.681838632
13.45590982,2.41541481,-2.169555426,-1.454836488
13.46598062,2.387873173,-2.094708443,-1.110198855
13.47605143,2.36847496,-2.034365416,-0.7237177491
13.48609171,2.363883734,-1.98840642,-0.372823
13.49619303,2.356575727,-1.959694982,-0.06302399933
13.50623331,2.351812124,-1.945440054,0.2765787542
13.51627359,2.346795082,-1.944068551,0.6803817153
13.52640543,2.33004427,-1.961417437,1.061079502
13.53647623,2.300645351,-2.001819611,1.364632368
13.54654703,2.249444008,-2.042407513,1.673050404
13.55664835,2.178053141,-2.087444305,2.043606997
13.56668863,2.089573383,-2.146713018,2.355659246
13.57675943,1.984193444,-2.207965136,2.586412907
13.58683024,1.861504316,-2.27020812,2.787410736
13.59690104,1.713224292,-2.329341173,3.003522158
13.60700235,1.549137235,-2.393586159,3.172442198
13.61704264,1.380610347,-2.444161177,3.252437353
13.62711344,1.201513767,-2.484712362,3.314800978
13.63718424,0.9982560873,-2.489284754,3.406041861
13.64725504,0.8119360805,-2.480462074,3.438823223
13.65732584,0.6662246585,-2.442868233,3.345045567
13.66739664,0.5416918993,-2.3713727,3.222933054
13.67746744,0.4296980202,-2.290786743,3.09101367
13.68756876,0.3420741558,-2.187820435,2.923631191
13.69760904,0.2848007083,-2.055360794,2.727629423
13.70767984,0.2289501429,-1.94130671,2.505328655
13.71772013,0.1764349937,-1.825765848,2.266459227
13.72779093,0.1311347336,-1.699618697,2.01995492
13.74793253,0.07674698532,-1.502059102,1.608806849
13.75800333,0.06837494671,-1.375312209,1.43026185
13.76807413,0.0777407065,-1.238841414,1.170080185
13.77814493,0.1143451408,-1.056601048,0.8095968366
13.78818522,0.1819479614,-0.8903951645,0.4567525685
13.79834757,0.2601196766,-0.7279102802,0.1284985095
13.80838785,0.3269861639,-0.5823480487,-0.148505196
13.81845865,0.385887444,-0.4571221769,-0.4071643054
13.82849894,0.436293155,-0.3382844925,-0.6032969952
13.8388444,0.4704694152,-0.2334575206,-0.7479578853
13.85871134,0.5736909509,-0.02509740926,-0.9633505344
13.86878214,0.6630448103,0.1041512042,-1.040338516
13.87885294,0.7702889442,0.2212694436,-1.116320848
13.88898478,0.8294391036,0.2987245023,-1.155810475
13.89902506,0.8816895485,0.3528614938,-1.201471686
13.90906534,0.9275372624,0.4073842466,-1.220738053
13.91913614,0.9614393711,0.4399959147,-1.201911807
13.92923746,0.9847716689,0.4335392714,-1.150305986
13.93930826,0.9973253012,0.388186276,-1.074144721
13.94937906,0.9937703609,0.3359185457,-0.9832080603
13.95941935,0.9704445601,0.3072202504,-0.8853191137
13.96955118,0.9358622432,0.2717767954,-0.788827002
13.97959146,0.8885983825,0.2447636724,-0.7091451287
13.98966227,0.8268898726,0.2433207035,-0.6256920695
13.99973307,0.7564385533,0.2494177669,-0.5029653907
14.00980387,0.6793022752,0.264098078,-0.3506745398
14.01987467,0.6016258597,0.2718463838,-0.1935207844
14.02994547,0.5270465612,0.2793980837,-0.04892930016
14.04001627,0.4648938477,0.2881146371,0.07557548583
14.05008707,0.4029045105,0.2828601003,0.1720128655
14.06018839,0.3240348697,0.2414987385,0.2412212342
14.07022867,0.232665047,0.1592463851,0.2743811905
14.08029947,0.1393988878,0.05851795524,0.2782211006
14.09037027,0.05823361501,-0.04076682031,0.2645860612
14.10044108,-0.002220299328,-0.122075811,0.2396023273
14.11051188,-0.0378456004,-0.201044023,0.212887764
14.12058268,-0.05622174591,-0.2571337819,0.1914059073
14.13065348,-0.05806567892,-0.3104266524,0.1643063575
14.14072428,-0.05198375508,-0.3544030786,0.1075584963
14.15076456,-0.04105651751,-0.3994345069,0.02305268124
14.16086588,-0.02376101352,-0.4630563855,-0.07251221687
14.1709672,-0.002268243115,-0.5392992496,-0.1610164791
14.18100748,0.01953052916,-0.6120507717,-0.2315248102
14.19107828,0.03806499764,-0.6671011448,-0.2817361951
14.2011796,0.05762928352,-0.7293320298,-0.3149395287
14.21121988,0.07193599641,-0.7759023309,-0.3389406204
14.22126017,0.08754967898,-0.8355309367,-0.3566063344
14.23136148,0.1056294143,-0.9091553688,-0.3705359101
14.24143229,0.1201296896,-0.9689764977,-0.3836060464
14.25150309,0.1332665086,-1.027339816,-0.3947247267
14.26157389,0.1452393532,-1.090193152,-0.3995727897
14.27164469,0.158533901,-1.173017025,-0.3957279921
14.28168497,0.1629374921,-1.245690107,-0.3868815899
14.29181681,0.1636279374,-1.333455324,-0.3763030171
14.30185709,0.1584568918,-1.432281494,-0.369377166
14.31186686,0.151461646,-1.560919642,-0.3687099516
14.32196817,0.1422906071,-1.719427466,-0.3747176826
14.33203898,0.1393598616,-1.928272843,-0.3852618337
14.34214029,0.1386809349,-2.156985998,-0.3989610076
14.35218058,0.1371969283,-2.380992413,-0.4132421315
14.3622819,0.1413010955,-2.613656998,-0.4262871742
14.3723527,0.1487833709,-2.846099138,-0.4393803477
14.3824235,0.163102597,-3.081342459,-0.4555233717
14.3924943,0.1879374683,-3.320980072,-0.4788104594
14.4025651,0.2162435949,-3.539293528,-0.5105424523
14.4126359,0.2432325184,-3.71590066,-0.551494658
14.4227067,0.2743988037,-3.860093117,-0.603050828
14.4327775,0.3160111606,-3.984220743,-0.667460084
14.4428483,0.3615813255,-4.068991661,-0.7443877459
14.4529191,0.4118560255,-4.11544466,-0.8320772648
14.4629899,0.4607155323,-4.111087799,-0.9240792394
14.4831315,0.5704610944,-4.106475353,-1.156227708
14.4932023,0.6135282516,-4.008494377,-1.276754498
14.50327311,0.6392769814,-3.88546133,-1.408487916
14.51334391,0.6406342983,-3.64806509,-1.502660513
14.52344523,0.6587796807,-3.478229761,-1.620378733
14.53345499,0.6790392995,-3.291362762,-1.726049304
14.54355631,0.6963948011,-3.08823657,-1.820764303
14.55359659,0.7144781351,-2.88215971,-1.90398097
14.56369791,0.7166577578,-2.647866249,-1.970266581
14.57376871,0.7036301494,-2.393952608,-2.024414301
14.58383951,0.6799131036,-2.133299828,-2.067798615
14.59391031,0.646325767,-1.870405436,-2.095887184
14.60401163,0.6071139574,-1.612208009,-2.114710569
14.61405191,0.5669369698,-1.363824606,-2.129884958
14.62412272,0.5331242681,-1.135955691,-2.13906765
14.6442338,0.4823702574,-0.7500038147,-2.187950373
14.65433512,0.4172662199,-0.525580883,-2.168574572
14.66440592,0.325686872,-0.2911857069,-2.139252424
14.67450724,0.2157086879,-0.06766819209,-2.04941535
14.68454752,0.1231158152,0.1055318117,-2.007527828
14.69461832,0.05459416285,0.2466360927,-1.958822012
14.70468912,0.004018544219,0.3574107587,-1.897420764
14.71475992,-0.04255332798,0.4451657236,-1.818040133
14.72486124,-0.0886297524,0.5104931593,-1.719862819
14.73490152,-0.1300702542,0.5503820777,-1.608165264
14.74497232,-0.1672537327,0.5676037073,-1.487416029
14.75504312,-0.2018454075,0.5629669428,-1.319116712
14.76511393,-0.2204019576,0.5232088566,-1.050221205
14.77518473,-0.2383191586,0.4634646177,-0.7303696275
14.78528605,-0.2577059567,0.3864704967,-0.3553723097
14.7956315,-0.2796033919,0.3072793484,0.04360516742
14.81549845,-0.3052274883,0.1394453645,0.9483855963
14.82556925,-0.2992908359,0.04355539382,1.438400149
14.83557901,-0.2882655859,-0.04057584703,1.861084104
14.84568033,-0.2644430101,-0.1219626516,2.163757563
14.85575113,-0.2481368333,-0.2169710547,2.512006044
14.86582193,-0.2259103358,-0.3382960558,2.845642328
14.87589274,-0.2107509822,-0.451189667,3.104170799
14.88663492,-0.2081475556,-0.5572263002,3.315183401
14.89664469,-0.2185450941,-0.6651740074,3.505068541
14.90665445,-0.2230576873,-0.7640073299,3.653384447
14.92661295,-0.2269550562,-0.9635298848,3.996539593
14.93665323,-0.2158135325,-0.983455658,3.94830966
14.94675455,-0.2013144791,-0.9563438296,3.822229624
14.95676432,-0.1780783981,-0.8865653276,3.55409956
14.9668046,-0.1468539089,-0.8341492414,3.288590908
14.97681437,-0.107190676,-0.7932460308,3.090524673
14.98682413,-0.06153303757,-0.7415781021,2.869693995
14.99686441,-0.01639204845,-0.6916059256,2.631109238
15.00687418,0.02040238306,-0.6307767034,2.385878563
15.01691446,0.04537595809,-0.5658391118,2.141912937
15.02698526,0.07666047662,-0.489315629,1.912120938
15.03702555,0.1321776062,-0.433224529,1.703494787
15.04709635,0.2195525914,-0.381670773,1.469781876
15.05716715,0.3676309884,-0.2867297828,1.169847369
15.06723795,0.5187434554,-0.1894171834,0.8398884535
15.07730875,0.6180377603,-0.09340087324,0.5421785116
15.08737955,0.6702799797,-0.02723003179,0.3058001697
15.09745035,0.7178410888,0.03588221967,0.09348566085
15.10752115,0.756960392,0.1103898361,-0.1087936312
15.11759195,0.7900585532,0.161848858,-0.2782890499
15.12766275,0.8208258152,0.1949891895,-0.4073825777
15.13773356,0.8541376591,0.2100814134,-0.5113853216
15.14777384,0.8836584091,0.2239971161,-0.6024688482
15.15845499,0.9094654322,0.2313558012,-0.6818300486
15.16858683,0.9325075746,0.225165233,-0.7440156937
15.18860636,0.9860197902,0.2089090347,-0.8302980065
15.19861612,0.997720778,0.1592798829,-0.8277134299
15.20862589,1.000180125,0.1104253381,-0.7993301153
15.21866617,0.969666481,0.04984253645,-0.7281040549
15.22867594,0.9567657709,-0.02215744741,-0.6601834893
15.2386857,0.930582881,-0.08679180592,-0.5879471898
15.24869547,0.8920359015,-0.1442930847,-0.5275098681
15.25870524,0.84575212,-0.2033166885,-0.465266645
15.26874552,0.794705689,-0.2604270875,-0.3685239255
15.27875528,0.7407388687,-0.3238281608,-0.2472267151
15.28934488,0.6869012117,-0.4048468769,-0.1295787841
15.30896769,0.602609694,-0.5411692858,0.04763702303
15.31900797,0.5537698865,-0.5893085599,0.114184536
15.32910929,0.4903344512,-0.6423594356,0.1647321135
15.33914957,0.4903344512,-0.6423594356,0.1647321135
15.34922037,0.3300229907,-0.7245880961,0.2022933066
15.35929117,0.2617196143,-0.7611409426,0.2017667592
15.36936197,0.208451286,-0.7816612124,0.193180725
15.37943277,0.1706422716,-0.7882441878,0.1805677414
15.39011393,0.1452850401,-0.7912372351,0.1668675691
15.40964518,0.1144780144,-0.8101850152,0.1450166255
15.41971598,0.1053585336,-0.8259910345,0.1343977451
15.42978678,0.09675074369,-0.8368573785,0.1166623831
15.43985758,0.08775019646,-0.8187713027,0.08889465034
15.44989786,0.08352013677,-0.8191369176,0.06166731566
15.45999918,0.08315369487,-0.8328749537,0.03848860785
15.47006998,0.07839302719,-0.8317244649,0.02467412502
15.48014078,0.07287847251,-0.8437264562,0.02074257098
15.490944,0.07016626,-0.8990454078,0.02432028204
15.51035318,0.04467052966,-1.065029144,0.04247076064
15.52042398,0.02295814641,-1.165695906,0.05044814199
15.53049479,-0.006922977977,-1.254224181,0.05499223247
15.54056559,-0.02955354564,-1.339013815,0.0539371185
15.55060587,-0.05110483617,-1.455910087,0.05204422772
15.56073771,-0.06824054569,-1.586304069,0.04937427491
15.57077799,-0.08264867216,-1.721827388,0.04611359164
15.58084879,-0.09319857508,-1.864470363,0.04190601036
15.59174357,-0.1019430161,-1.99337244,0.03765970841
15.61096964,-0.1203444898,-2.345514297,0.02386447601
15.62113199,-0.1294169128,-2.43043828,0.008851988241
15.63120279,-0.1362474114,-2.494985819,-0.01385040116
15.64127359,-0.13393417,-2.473972321,-0.04266878963
15.65131388,-0.1238619685,-2.433111668,-0.06979624927
15.6614152,-0.104210183,-2.451859951,-0.1004707217
15.671486,-0.07612512261,-2.436307192,-0.1633830965
15.6815568,-0.04492804036,-2.382929802,-0.2719119489
15.69254312,-0.01831574924,-2.285396099,-0.4285764396
15.7117692,0.01767255925,-2.137638092,-0.8570075035
15.72184,0.04143299535,-1.976840019,-1.053007364
15.73194132,0.07444487512,-1.810969353,-1.228581309
15.7419816,0.1093583331,-1.590726733,-1.359371066
15.7520524,0.137375623,-1.3342942,-1.518829703
15.76209269,0.159163937,-1.085631847,-1.724467754
15.772194,0.1731757969,-0.864403367,-1.8762151
15.78223429,0.1627059877,-0.6308685541,-1.98259902
15.79227457,0.1627059877,-0.6308685541,-1.98259902
15.80258951,0.08566814661,-0.05225795507,-2.286223173
15.82251749,-0.02302229404,0.4527048469,-2.549131155
15.83258829,-0.09430260211,0.7027387619,-2.656546354
15.84265909,-0.2282987833,1.05581069,-2.820831537
15.85272989,-0.397241503,1.379594803,-2.86237216
15.86280069,-0.5789286494,1.662106633,-2.883981705
15.87290201,-0.7578299046,1.896356225,-2.891227245
15.8829423,-0.908460319,2.063062429,-2.929788113
15.8930131,-1.043318033,2.163667679,-2.918254852
15.90341959,-1.160773516,2.198502541,-2.824987173
15.9232255,-1.427193761,2.248562098,-2.716400385
15.93332682,-1.515057564,2.211906672,-2.594385147
15.9433671,-1.58745122,2.167483807,-2.442361593
15.9534379,-1.601506948,2.065233946,-2.204535961
15.9635087,-1.628719449,2.006315708,-2.005424261
15.9735795,-1.643890738,1.933252811,-1.799006104
15.9836503,-1.658211112,1.849741101,-1.588006973
15.9937211,-1.669404626,1.665033937,-1.182930231
16.00421915,-1.666961789,1.490617037,-0.7189762592
16.02393351,-1.69047904,1.319213986,0.07163453102
16.03400431,-1.666507602,1.208973289,0.5566824079
16.04407511,-1.626952052,1.094647646,1.061656833
16.05414591,-1.549142838,0.9943684936,1.389964104
16.06418619,-1.506714344,0.9302204847,1.696503162
16.07428751,-1.441125274,0.8199362755,2.108538389
16.08435831,-1.379034042,0.7121222615,2.465163946
16.09445963,-1.32352078,0.6219754219,2.757167339
16.10501871,-1.262077928,0.5374960899,3.012013435
16.12467203,-1.177371979,0.440680474,3.46815753
16.13471232,-1.110646725,0.4234130085,3.532468081
16.14478312,-1.037378311,0.4351774454,3.503499269
16.15485392,-0.9349378943,0.454437077,3.334149837
16.16492472,-0.8487030864,0.4855527282,3.215882778
16.17499552,-0.7539510131,0.5138879418,3.078495264
16.18506632,-0.6543590426,0.5259919763,2.920358658
16.19513712,-0.5598697662,0.5247650743,2.747074127
16.20584879,-0.4778772593,0.5162307024,2.564888954
16.22541056,-0.3618072867,0.5123004317,2.234793663
16.23545084,-0.286426723,0.5228649378,2.030288458
16.24552164,-0.1845214218,0.5390450358,1.827322721
16.25559244,-0.0583107844,0.5450636744,1.593931556
16.26566324,0.06770826876,0.5779793859,1.391292214
16.27573404,0.1778526455,0.6346644163,1.142509222
16.28580484,0.2654599547,0.6972190142,0.8927568197
16.29584513,0.3357185423,0.7299483418,0.6977342367
16.3065568,0.382717669,0.7450936437,0.5022890568
16.32605753,0.4594118297,0.6810512543,0.2363644242
16.33615885,0.4878648221,0.6064425707,0.1477600038
16.34622965,0.5124549866,0.533732295,0.07265278697
16.35626993,0.5247835517,0.4471805096,0.005998841953
16.36631022,0.5545104146,0.3675917387,-0.05043938383
16.37638102,0.5852366686,0.2894761264,-0.09294833243
16.38645182,0.6122313142,0.2154732794,-0.1176813021
16.39652262,0.6292458177,0.1438395977,-0.1241404191
16.40732584,0.6315116286,0.06618269533,-0.1193248779
16.42676554,0.6060438752,-0.08840338141,-0.08607758582
16.43680582,0.577150166,-0.1734135747,-0.009547392838
16.44687662,0.5498874784,-0.2709933519,0.1042392626
16.45694742,0.5113608241,-0.3700703979,0.2243526429
16.46701822,0.4848645926,-0.4642317891,0.328754127
16.47708902,0.4579589367,-0.5292733312,0.3919166028
16.48715983,0.4239538014,-0.5755519271,0.415227294
16.49723062,0.3719968498,-0.6334998608,0.4219379723
16.50809488,0.3017711341,-0.6971831918,0.4254913628
16.52744303,0.1432206482,-0.8284502029,0.4254045188
16.53748331,0.07746239007,-0.8795661926,0.3995154202
16.54758463,0.03124654293,-0.9054023623,0.3583871126
16.55768595,0.008928208612,-0.8790481687,0.3030222356
16.56778727,0.007738921326,-0.8669628501,0.264107734
16.57785807,0.01703617163,-0.8520264626,0.2238851786
16.58789835,0.03005921654,-0.8253735304,0.1582399011
16.59796915,0.04213786498,-0.7828327417,0.07026860118
16.60895548,0.05396495759,-0.7433068156,-0.01885367557
16.62824259,0.08213946968,-0.7454845905,-0.1111521199
16.63828287,0.09794317186,-0.7648155093,-0.1054293066
16.64835367,0.1190736368,-0.7978728414,-0.08375640213
16.65845499,0.1371198595,-0.8014588952,-0.05354805663
16.66849527,0.1635809541,-0.8404535651,-0.02513341047
16.67856608,0.1897445917,-0.8780173659,-0.002066934248
16.68860636,0.2126360834,-0.9121412635,0.01365266554
16.69867716,0.2301490158,-0.953615427,0.06073007733
16.70975504,0.2430584431,-1.01362288,0.1347829849
16.72892008,0.2816741168,-1.274882674,0.2983421385
16.73899088,0.2883974016,-1.36364007,0.3474119902
16.74906168,0.3072067797,-1.485521436,0.3800454736
16.759163,0.3012374938,-1.540678024,0.3664420545
16.76920328,0.2775315344,-1.595781922,0.3299177885
16.77924356,0.2397022843,-1.676985621,0.2846107185
16.78934488,0.1931707412,-1.784850359,0.2273923308
16.79941568,0.1386654377,-1.870874882,0.1718982011
16.80948648,0.09070052952,-1.969895244,0.1324869394
16.81955729,0.05319346488,-2.037952662,0.03803574666
16.82962809,0.01932728291,-1.979935884,-0.2110507339
16.8397294,-0.03014617972,-1.902340055,-0.4931215048
16.84976969,-0.06979181617,-1.851652026,-0.7359568477
16.85984049,-0.09209214151,-1.828367472,-0.9355434179
16.86994181,-0.1224649549,-1.790151358,-1.147583604
16.88001261,-0.1711452603,-1.73338604,-1.393382907
16.89005289,-0.2151489407,-1.682939529,-1.615754843
16.90009317,-0.2410235554,-1.652218461,-1.782105327
16.91019449,-0.2738916874,-1.605886459,-1.9422189
16.92026529,-0.3337613642,-1.519425511,-2.136677027
16.93033609,-0.391977042,-1.417755961,-2.317208767
16.9404069,-0.4186213911,-1.334158659,-2.440714598
16.95114908,-0.4391705692,-1.242532492,-2.547556639
16.97116861,-0.502163589,-1.035868645,-2.883895874
16.9812089,-0.4900409579,-0.9270609617,-2.954745531
17.00122843,-0.4489392638,-0.6925957799,-3.046450853
17.01126871,-0.4344441593,-0.5569630861,-3.09457159
17.02127848,-0.4052056968,-0.4444144666,-3.085299253
17.03131876,-0.3716841042,-0.3303573132,-2.947715282
17.04132853,-0.3628076017,-0.2234461457,-2.899756432
17.05133829,-0.3516096175,-0.1233863011,-2.847388983
17.06137858,-0.3485143185,-0.03568127379,-2.772866726
17.07138834,-0.3476731479,0.02463463694,-2.67223978
17.08142862,-0.3410226107,0.07946635038,-2.540374517
17.09146891,-0.3102186322,0.1435668468,-2.378911734
17.10153971,-0.2546546459,0.2190208286,-2.19396925
17.11161051,-0.1878082454,0.3075528443,-1.992896199
17.12168131,-0.1258848459,0.4047535062,-1.786621809
17.13175211,-0.07608380169,0.4994369149,-1.592893004
17.14182291,-0.006196669303,0.5401881933,-1.343250394
17.15189371,0.1121975332,0.5202399492,-1.022559881
17.16196451,0.2801946998,0.4765173197,-0.6413439512
17.17203531,0.4534582496,0.4199599922,-0.2837761939
17.18210611,0.5964300632,0.3525171876,0.01923702657
17.19217691,0.7529190779,0.2707012892,0.3393963277
17.20224772,0.9569168687,0.1597482264,0.7314276099
17.21302042,1.146148682,0.02193197235,1.106451273
17.22303019,1.310774684,-0.16157718,1.394153714
17.23303995,1.496330261,-0.4091770053,1.682710052
17.24308024,1.723248243,-0.7513769269,2.035647631
17.25309,1.860467911,-1.063604116,2.32339716
17.27314005,1.980391979,-1.634389639,2.742365599
17.28318033,1.973074198,-1.946066976,2.951361418
17.30319986,1.807080388,-2.480099916,3.286174774
17.31324015,1.680099487,-2.68343091,3.396468878
17.33325968,1.35071528,-2.982342958,3.541200161
17.34326944,1.189357877,-2.992987394,3.446768284
17.35330973,1.037107468,-2.966794729,3.329848528
17.36338053,0.8622598648,-2.861497402,3.141145945
17.37345133,0.7341685891,-2.789719105,3.001046181
17.38352213,0.6559246778,-2.696880579,2.813355207
17.39356241,0.5812919736,-2.581940889,2.582726002
17.40366373,0.5122175813,-2.459477186,2.329499722
17.41373453,0.4569858909,-2.336442709,2.073851347
17.42380533,0.4209278822,-2.210985422,1.833060145
17.43387613,0.4018447995,-2.091844797,1.621074438
17.44394693,0.3910570443,-1.973933935,1.44279027
17.45401961,0.3885223269,-1.850677133,1.220172405
17.46409041,0.4476878345,-1.680813074,0.8748765588
17.47416121,0.5249533057,-1.500827909,0.4994767606
17.48423201,0.5871283412,-1.322595835,0.1794765443
17.49430281,0.6256135106,-1.176094174,-0.08389002085
17.50437362,0.6574783921,-1.026855946,-0.3127104342
17.51444442,0.7033027411,-0.8715633154,-0.4982264936
17.52451522,0.7722281814,-0.7219792604,-0.6533885598
17.53458602,0.8646766543,-0.5919955969,-0.7864550948
17.54465682,0.9552798867,-0.4748653769,-0.9022977352
17.55472762,1.029485106,-0.3654567003,-1.014483333
17.56479842,1.08720994,-0.2637803555,-1.114899158
17.5748387,1.123882771,-0.1893626601,-1.190011144
17.5849095,1.159765005,-0.136803925,-1.227959633
17.5949803,1.201484323,-0.1158133894,-1.236297846
17.60502059,1.236581802,-0.107981585,-1.216604948
17.61509139,1.263792872,-0.1208732203,-1.164810896
17.62516219,1.280203223,-0.1448936313,-1.080152035
17.63523299,1.277451992,-0.1658247709,-0.9699317217
17.64533431,1.25370276,-0.196604073,-0.8511285782
17.65537459,1.199384212,-0.2203551382,-0.7460850477
17.66547591,1.115994573,-0.2310408205,-0.670140028
17.67551619,1.021035552,-0.2463697046,-0.5554738641
17.68558699,0.927618742,-0.280495882,-0.385939151
17.69568831,0.8403894305,-0.3261012733,-0.1701286584
17.7057286,0.7466731668,-0.383695811,0.06774668396
17.7157994,0.639852345,-0.433675468,0.2924371362
17.72590071,0.5346573591,-0.4681669474,0.4787642956
17.73597152,0.4376281798,-0.4780266285,0.6147887707
17.74604232,0.3121720254,-0.4849301577,0.7103088498
17.7560826,0.166165337,-0.4824595451,0.7817914486
17.7661534,0.02225802466,-0.4859866202,0.8332784772
17.77625472,-0.1049233451,-0.4878133535,0.8580051661
17.78632552,-0.2072332352,-0.4793412983,0.8581972122
17.79639632,-0.279281795,-0.4754666686,0.8394470215
17.80649764,-0.3254944384,-0.4751471281,0.8053472042
17.81653792,-0.3543487191,-0.4673438072,0.7582401037
17.82660872,-0.3672163785,-0.4728771746,0.699626863
17.83667952,-0.3729370236,-0.4656915963,0.6310782433
17.85688216,-0.3568778038,-0.5001709461,0.5083503127
17.86695296,-0.3278007805,-0.5349779129,0.4571200609
17.87699324,-0.2963365912,-0.5610437393,0.3760152459
17.88706404,-0.2571852803,-0.5660772324,0.2454220504
17.89713484,-0.2268752605,-0.5746801496,0.09334054589
17.90720565,-0.1957034469,-0.5913770199,-0.05680372939
17.91727645,-0.164584592,-0.6151637435,-0.1782175899
17.92737777,-0.1343620867,-0.6441535354,-0.2685161829
17.93741805,-0.1041395068,-0.6888834238,-0.3400923014
17.94748885,-0.08062167466,-0.7293141484,-0.4030636549
17.95755965,-0.06342796236,-0.77469033,-0.4607636034
17.96763045,-0.05486837402,-0.8217201829,-0.5136429667
17.97770125,-0.05355363339,-0.8814118505,-0.5618126988
17.98777205,-0.06400792301,-0.9385488033,-0.6057912707
17.99781234,-0.08193671703,-1.011303663,-0.6451002955
18.00818831,-0.1090389639,-1.090795755,-0.6798290014
18.02805526,-0.1689309925,-1.339266658,-0.7556106448
18.03812606,-0.1914718449,-1.466208935,-0.7813993096
18.04819686,-0.2038420588,-1.603932023,-0.8098088503
18.05826766,-0.1947913319,-1.716938972,-0.8251792789
18.06833846,-0.1774128526,-1.869915724,-0.8700217605
18.07843978,-0.1410090178,-2.033097506,-0.9246629477
18.08848006,-0.08718825132,-2.20002079,-0.9879236817
18.09855086,-0.01721393317,-2.370112896,-1.057665467
18.10862166,0.05923398212,-2.519854307,-1.130034804
18.11872298,0.1424271762,-2.650669813,-1.205421925
18.12879378,0.2381616235,-2.776632071,-1.285830975
18.13886458,0.3507477343,-2.906943083,-1.374560833
18.14893538,0.4723209739,-3.023510456,-1.470567107
18.15900618,0.6038507819,-3.133035898,-1.57185328
18.16901595,0.7380204797,-3.232465267,-1.67139554
18.17914778,0.8796904087,-3.322485924,-1.770531058
18.18918807,1.03083694,-3.406960726,-1.86629653
18.19925887,1.176849484,-3.462476969,-1.952942371
18.20929915,1.32592833,-3.507810354,-2.031456232
18.21940047,1.46564436,-3.526260376,-2.095518827
18.22950179,1.595502615,-3.525177956,-2.14239502
18.23954207,1.714560747,-3.509050608,-2.170904636
18.24961287,1.81786561,-3.473716259,-2.179802895
18.25968367,1.902142525,-3.415869474,-2.168736696
18.26975447,1.980623841,-3.34671092,-2.140435457
18.27985579,2.082609653,-3.27623558,-2.096791983
18.28989608,2.192823648,-3.190610647,-2.036908865
18.29996688,2.316106081,-3.110339403,-1.965141296
18.31003768,2.442847729,-3.040753126,-1.884707093
18.32010848,2.553330421,-2.974166155,-1.798024893
18.33017928,2.643376827,-2.916320562,-1.710829854
18.34025008,2.704830647,-2.859053135,-1.629508138
18.35032088,2.723996878,-2.792666912,-1.530281901
18.36039168,2.714581013,-2.735652924,-1.401391625
18.37046248,2.668348789,-2.677525043,-1.237500191
18.38053328,2.584273577,-2.611505032,-1.04506731
18.39060408,2.466540098,-2.532214642,-0.8389192224
18.4007054,2.333731174,-2.449710131,-0.6354389787
18.41074569,2.199863434,-2.371419668,-0.4433702826
18.42081649,2.067100763,-2.294673681,-0.2617078722
18.43088729,1.936009407,-2.216826439,-0.0848544836
18.4409886,1.800225496,-2.129252195,0.09220855683
18.45102889,1.618063688,-2.028298378,0.2969484627
18.46109969,1.370962858,-1.914413571,0.5472325683
18.47117049,1.093129516,-1.786639452,0.8290851116
18.48124129,0.8550271988,-1.662121773,1.103868484
18.49131209,0.6632101536,-1.541103125,1.363478184
18.50138289,0.4906572998,-1.414988756,1.635283351
18.52149398,0.2242325246,-1.206473947,2.204479218
18.53159529,0.1306450814,-1.104750991,2.393940449
18.5416661,0.05582063645,-1.022140741,2.553166151
18.5517369,-0.01975057833,-0.9035212994,2.638978958
18.5618077,-0.08276738226,-0.8131073117,2.754945755
18.5718785,-0.1305045635,-0.7281606793,2.820034027
18.5819493,-0.1734170169,-0.6393258572,2.86632967
18.5920201,-0.2103152871,-0.5644261837,2.893568993
18.6020909,-0.2397557348,-0.4882812202,2.90668869
18.6121617,-0.2583186626,-0.4063835442,2.896700382
18.6222325,-0.2650154531,-0.3265173435,2.858947992
18.63227278,-0.26179564,-0.2613423467,2.789558649
18.64234359,-0.2446754873,-0.206855312,2.687927485
18.65241439,-0.2167514116,-0.1569214463,2.553709269
18.6625157,-0.1833048314,-0.1214044169,2.391204596
18.6725865,-0.1531814337,-0.09767828137,2.2045784
18.68265731,-0.1234845817,-0.08549467474,1.998508573
18.69272811,-0.09294494987,-0.07130135596,1.786429286
18.70279891,-0.06408310682,-0.03864941373,1.589134574
18.71286971,-0.04245359823,0.01912055351,1.426131129
18.72294051,-0.02909527533,0.07053740323,1.272129416
18.73304183,0.06719990075,0.04216634855,0.9858621955
18.74308211,0.161270082,0.01067179348,0.70627141
18.75315291,0.2461098731,-0.007761541288,0.4403811097
18.76322371,0.317879647,-0.01327606663,0.1606090814
18.77329451,0.3804745078,-0.03465603665,-0.09968148172
18.78339583,0.4200193286,-0.03716870397,-0.3143369555
18.79343612,0.4553623497,-0.04590640217,-0.4873647094
18.80350692,0.4972253442,-0.05815562606,-0.6171376705
18.81357772,0.5424434543,-0.06844909489,-0.7091084719
18.82364852,0.5910560489,-0.08213265985,-0.7707410455
18.8336888,0.6387423873,-0.08506028354,-0.8109194636
18.8437596,0.6848105192,-0.1033171862,-0.8397086859
18.8538304,0.7239502668,-0.1277481765,-0.856885016
18.86393172,0.7544166446,-0.1495712101,-0.856210947
18.87400252,0.7771476507,-0.1672812253,-0.8346627355
18.88407332,0.7926589847,-0.1827128232,-0.789511621
18.89414412,0.8000705242,-0.1894496679,-0.7213576436
18.90421492,0.7979625463,-0.1822107285,-0.6411058903
18.91428572,0.7861532569,-0.1702095419,-0.5664535165
18.92435652,0.7655864358,-0.1582804918,-0.507573843
18.93442733,0.731120646,-0.1236922294,-0.3985314965
18.94449813,0.6854234338,-0.07352395356,-0.2272947133
18.95456893,0.6324813366,-0.01295388117,-0.01825855859
18.96463973,0.5772778988,0.04542490095,0.1835250407
18.97471053,0.5237113833,0.0820383057,0.3417750299
18.98478133,0.4711935818,0.1068235189,0.4514878988
18.99485213,0.4211571217,0.1263486296,0.5302454829
19.00492293,0.3754038215,0.1364955902,0.5868822932
19.0156346,0.3336387575,0.1458760351,0.6256897449
19.03568465,0.2662442327,0.1572784483,0.6548061967
19.04572493,0.218915686,0.1529555917,0.6222843528
19.0557347,0.1615077853,0.1489703506,0.5726585388
19.06577498,0.0964057371,0.1449391693,0.5003112555
19.07578475,0.04015234858,0.141884923,0.4384920299
19.08579451,-0.004237297457,0.1429392546,0.3806788921
19.09580428,-0.03552792966,0.1514051855,0.3374176025
19.10584456,-0.05508459359,0.1511999518,0.2822435796
19.11585433,-0.06382715702,0.1429165453,0.1906527579
19.12589461,-0.06623990834,0.1327642053,0.0710426569
19.14591414,-0.06641741097,0.1053529978,-0.168616429
19.15598494,-0.06426786631,0.08467298001,-0.252923429
19.16605574,-0.06252880394,0.06435813755,-0.3081166446
19.17612654,-0.06057259813,0.03991543874,-0.3347404301
19.18619734,-0.06479902565,0.03069093265,-0.3579470813
19.19626815,-0.07232560217,0.02768441848,-0.3725103736
19.20633895,-0.08137560636,0.02009323239,-0.3789173067
19.21640975,-0.09415007383,0.02267972566,-0.3770667911
19.22641951,-0.1090549454,0.02581327967,-0.3672181368
19.23655135,-0.1259267032,0.02902921662,-0.3498362899
19.24662215,-0.1442509443,0.02868085727,-0.3260646462
19.25669295,-0.1649559289,0.02939160913,-0.2971282601
19.26676375,-0.1893855184,0.02352958731,-0.2638438642
19.27680404,-0.2171581537,0.007569713518,-0.22798118
19.28754622,-0.249088034,-0.01187693514,-0.1917445064
19.29755599,-0.281924665,-0.04172851145,-0.1580449641
19.30759627,-0.3081674874,-0.1013748944,-0.1302224994
19.31763655,-0.3242555261,-0.1936743408,-0.1100101769
19.32764632,-0.3307223022,-0.3107763529,-0.09729766101
19.33765609,-0.3305004239,-0.4411749542,-0.09139484912
19.34766585,-0.3287240267,-0.5547949672,-0.09095468372
19.35770613,-0.3281814456,-0.643243134,-0.09802657366
19.36774642,-0.32433483,-0.7178968787,-0.1189582273
19.37775618,-0.3164745569,-0.7655421495,-0.1600887775
19.38776595,-0.2984440923,-0.8174667358,-0.2315419018
19.39780623,-0.2732842267,-0.8520506024,-0.3344059289
19.407816,-0.2412971109,-0.8814963698,-0.4680245221
19.41785628,-0.210435465,-0.9208382368,-0.6383113861
19.42789656,-0.1863505542,-0.977155447,-0.847512722
19.43796737,-0.1447808295,-1.030992985,-1.094222546
19.44803816,-0.08864568919,-1.06942606,-1.285710335
19.45807845,-0.02649903297,-1.104613662,-1.440206051
19.46817977,0.05015710369,-1.157306075,-1.646916032
19.47825057,0.1396727115,-1.20470202,-1.918137789
19.48832137,0.2300168127,-1.230300069,-2.144906044
19.49839217,0.3163018823,-1.235593796,-2.310344696
19.50846297,0.424887985,-1.243038774,-2.514208555
19.51853377,0.5530185699,-1.243743181,-2.756652832
19.52860457,0.6777843833,-1.231183171,-2.937276602
19.53864486,0.8076121211,-1.217611074,-3.079451561
19.54871566,0.9559617043,-1.222264409,-3.209828377
19.55878646,1.117422223,-1.238253713,-3.330930471
19.56885726,1.266559482,-1.247013211,-3.416513681
19.57895858,1.397031546,-1.244709134,-3.462731361
19.58902938,1.508856058,-1.232411385,-3.486766338
19.59910018,1.60104537,-1.21660006,-3.489177465
19.60917098,1.681331038,-1.218361497,-3.453800201
19.61924178,1.727459669,-1.218550324,-3.369627953
19.62931258,1.775016904,-1.241716504,-3.281633615
19.63938338,1.803215384,-1.262511134,-3.172437429
19.64945418,1.821034193,-1.282260418,-3.026587963
19.65949446,1.810405254,-1.282113791,-2.839618206
19.66956527,1.767764926,-1.259252787,-2.612268448
19.67963607,1.681681871,-1.228253126,-2.363890171
19.68973738,1.579519033,-1.215467453,-2.12132144
19.69980819,1.303756237,-1.261025786,-1.729766011
19.70987899,0.9918885827,-1.287800193,-1.271427035
19.7199803,0.7404014468,-1.266755342,-0.8433119655
19.73002059,0.4570507407,-1.195873499,-0.3957664371
19.74009139,0.02843429521,-1.056760192,0.2232325822
19.75016219,-0.3293687105,-0.8791934252,0.7635572553
19.76023299,-0.666138649,-0.6684516072,1.303087473
19.77030379,-0.9842091203,-0.4185901582,1.838351727
19.78037459,-1.263278604,-0.1477722228,2.35159421
19.79044539,-1.505169511,0.1414878368,2.839154959
19.80051619,-1.702800155,0.4443638623,3.284635782
19.81058699,-1.852971554,0.7413249612,3.684459686
19.82065779,-1.960219979,1.034697533,4.0351758
19.8307286,-2.008360863,1.301937699,4.316475391
19.84082991,-1.993328333,1.519644141,4.509993076
19.8508702,-1.920229197,1.679166794,4.619439125
19.860941,-1.81340754,1.81840086,4.649580479
19.87098128,-1.683342099,1.935699582,4.567914963
19.88105208,-1.548875928,2.02186203,4.35751152
19.8911534,-1.408373475,2.095176697,4.136682987
19.9012242,-1.253766418,2.130507469,3.89865756
19.911295,-1.097315669,2.104940176,3.626365185
19.9213658,-0.9638145566,2.053286552,3.334718227
19.9314366,-0.8493365645,1.990968943,3.037086248
19.9415074,-0.7228654623,1.906215906,2.738249779
19.9515782,-0.5743555427,1.812335253,2.452054024
19.961649,-0.4031500816,1.712781906,2.172180653
19.97171981,-0.222023353,1.588925481,1.835584641
19.98179061,-0.03671677411,1.447052717,1.451011181
19.99186141,0.1428753585,1.302478671,1.053937674
20.00193221,0.2679883242,1.178715944,0.7159003615
20.01200301,0.3493163288,1.082718611,0.4491991401
20.02207381,0.4182573855,0.9892451167,0.200051412
20.03214461,0.4791905582,0.9012839198,-0.04583209381
20.04221541,0.5266571641,0.8235013485,-0.2557258308
20.05228621,0.5599810481,0.7484404445,-0.4230143726
20.06235701,0.5938434005,0.6895217299,-0.5557950139
20.07242781,0.6312636137,0.6252790093,-0.6617780924
20.08249862,0.6656267047,0.5770526528,-0.7403932214
20.09256942,0.7014815807,0.519380331,-0.8021856546
20.10264022,0.7366102338,0.4572660327,-0.8471984863
20.11271102,0.7669031024,0.3995196819,-0.869961977
20.12278182,0.7885651588,0.3466548622,-0.8651770949
20.13285262,0.7954831719,0.3076723516,-0.8318382502
20.14292342,0.7858866453,0.2856773734,-0.7732435465
20.15299422,0.763969779,0.2656999528,-0.6969147921
20.16306502,0.7268939614,0.2525754273,-0.618187964
20.17313582,0.6790926456,0.2399135828,-0.5562559962
20.18320662,0.6191757917,0.2494833767,-0.4725733101
20.19327742,0.549002111,0.2833537757,-0.3460752368
20.20334822,0.4725696146,0.3267062902,-0.1932899505
20.21341902,0.3968569934,0.3696545362,-0.04446907714
20.22348983,0.3319164813,0.3967309594,0.07692036778
20.23356063,0.2834140658,0.4078176618,0.172694996
20.24363143,0.2312805355,0.4149719179,0.254221648
20.25370223,0.1652338356,0.4156009555,0.3255614936
20.26377303,0.08572764695,0.4114052653,0.3825882077
20.27384383,-0.002435420174,0.4118147194,0.421530962
20.28391463,-0.08276783675,0.4022914469,0.4428664744
20.29398543,-0.1441562921,0.3831967115,0.448720336
20.30405623,-0.1826674938,0.3556710482,0.4433430135
20.31412703,-0.203288272,0.3334900439,0.4312090278
20.32422835,-0.2069095224,0.3046688735,0.4156819284
20.33426863,-0.1998523772,0.2704623044,0.4017062187
20.34433944,-0.1931431592,0.2515714765,0.3941835761
20.35441024,-0.1871792227,0.2332848459,0.3971920907
20.36448104,-0.1864270717,0.2317323685,0.413579911
20.37455184,-0.1866157353,0.2323621809,0.4401445091
20.3845616,-0.186049208,0.2284108847,0.4705840647
20.39469344,-0.1874268353,0.2350390106,0.4977958798
20.40476424,-0.1885818541,0.2457816303,0.515668273
20.41483504,-0.1874478161,0.2520558536,0.5240875483
20.42508895,-0.1849404275,0.2564426064,0.5268487334
20.44504744,-0.181394726,0.2621348202,0.5378446579
20.45511824,-0.1790641844,0.2615419924,0.533977747
20.46515853,-0.1800228357,0.2637913823,0.5282412767
20.47525984,-0.180496484,0.2524673939,0.5069304705
20.48533065,-0.1913340837,0.2401806116,0.4955031872
20.49540145,-0.209446311,0.2229539454,0.4793813527
20.50547225,-0.2347866893,0.2023729533,0.4575638175
20.51554305,-0.2642441392,0.1720062941,0.4298322797
20.52561385,-0.2957248986,0.1342181265,0.3973957896
20.53568465,-0.3275948763,0.0897936523,0.3619767427
20.54575545,-0.3535715938,0.02451286092,0.3255868852
20.55582625,-0.372784555,-0.07009487599,0.2923579216
20.56586654,-0.3862606585,-0.1717789322,0.2542642355
20.57596785,-0.3943293691,-0.2804080844,0.1900954545
20.58600814,-0.3973140717,-0.3886967003,0.09219137579
20.59607894,-0.3963751793,-0.479750663,-0.03648417443
20.60618026,-0.3915707171,-0.551263988,-0.1875465363
20.61625106,-0.3800364137,-0.6240289807,-0.3537366986
20.62632186,-0.3650279939,-0.6812569499,-0.5277021527
20.63639266,-0.3472792506,-0.7425181866,-0.7083123326
20.64646346,-0.3452264667,-0.7993751764,-0.8934370279
20.65653426,-0.3459670842,-0.8595275283,-1.085518479
20.66660506,-0.3317801654,-0.931429565,-1.294680119
20.67667586,-0.2972486019,-1.008669615,-1.546438575
20.68674666,-0.2427442521,-1.093074799,-1.793969512
20.69681746,-0.1719202399,-1.179319382,-1.999447346
20.70691878,-0.09327346087,-1.268331289,-2.203206539
20.71695906,0.001165637164,-1.359600186,-2.445013046
20.72702987,0.101148881,-1.440958619,-2.662879467
20.73703963,0.2033847421,-1.508391857,-2.851228476
20.74717147,0.3206611872,-1.585208178,-3.031027794
20.75724227,0.4567055106,-1.671960592,-3.213698387
20.76731307,0.6123046279,-1.759233594,-3.377390146
20.77738387,0.7851463556,-1.837270498,-3.521501064
20.78745467,0.9660128355,-1.901711822,-3.631851435
20.79752547,1.153097749,-1.947796106,-3.713558912
20.80759627,1.350575805,-1.990774751,-3.786159039
20.81766707,1.553515673,-2.027487278,-3.845964909
20.82773787,1.746539831,-2.055404663,-3.872327328
20.83780867,1.926002622,-2.078640461,-3.862850666
20.84787947,2.096141815,-2.099806786,-3.830361843
20.85795028,2.258524179,-2.118630409,-3.785461187
20.86799056,2.406740904,-2.133001089,-3.727796316
20.87809188,2.511630774,-2.126593351,-3.634632587
20.88816268,2.57759285,-2.103407621,-3.507403851
20.90827376,2.667157888,-2.056607723,-3.230739355
20.91837508,2.638727665,-1.988971472,-3.003809214
20.92844588,2.579286098,-1.912700057,-2.74969697
20.93851668,2.411037922,-1.7996099,-2.386800051
20.94858748,2.224262714,-1.764316797,-1.986058235
20.9586888,1.970087051,-1.71891892,-1.503123522
20.96872908,1.739201307,-1.650197506,-1.043062568
20.97879988,1.50718081,-1.56549263,-0.57990098
20.98887069,1.175946355,-1.446978211,0.05561272427
20.99894149,0.8690907955,-1.304464102,0.6585105658
21.00901229,0.5923449397,-1.149113774,1.234877467
21.01908309,0.3273250461,-0.9714979529,1.805209637
21.02915389,0.07713717967,-0.777107656,2.355899334
21.03922469,-0.1569755375,-0.5592294335,2.88210988
21.04929549,-0.3535145521,-0.331954211,3.369116783
21.05961043,-0.5239257216,-0.08681855351,3.817986965
21.07950789,-0.7876141071,0.4303548634,4.708487988
21.08957869,-0.8517577052,0.6951199174,5.005079269
21.10032088,-0.8789977431,0.9452328086,5.205423355
21.11033065,-0.8554971218,1.145047903,5.182042599
21.12034041,-0.8219912052,1.319041133,5.196592331
21.1303807,-0.7607475519,1.44318831,5.116265774
21.14039046,-0.6763260961,1.476089954,4.89302063
21.15040023,-0.5863121748,1.435173869,4.579629421
21.16044051,-0.4927612245,1.412203789,4.292651176
21.17048079,-0.3988086581,1.412659407,3.999548912
21.18049056,-0.3176395595,1.422247291,3.691576719
21.19050032,-0.2589693367,1.419773221,3.370069981
21.20054061,-0.1981470585,1.388100863,3.043329239
21.21055037,-0.1138865128,1.332286596,2.726596355
21.22059066,-0.001286331564,1.274281263,2.433841467
21.23060042,0.128065303,1.212927341,2.12939167
21.2406407,0.2590739429,1.10874486,1.759786487
21.25074202,0.4129002988,0.9680368304,1.322074175
21.26078231,0.5437815785,0.8038275242,0.9005024433
21.27082259,0.6089714766,0.6917151213,0.5968603492
21.28086287,0.6544354558,0.6047096252,0.362344414
21.29096419,0.6962277889,0.5290567279,0.1248881966
21.30106551,0.7334018946,0.4534774721,-0.08128981292
21.31113631,0.7681956887,0.3967441022,-0.2538752854
21.32120711,0.7993545532,0.3601574004,-0.4030756354
21.33124739,0.8325479031,0.3069318831,-0.5342308283
21.34128768,0.8688577414,0.2432908118,-0.6398031116
21.351389,0.9062165022,0.1747262627,-0.7194524407
21.3614598,0.9392684102,0.1223178208,-0.7742531896
21.37207991,0.9695634842,0.05890444666,-0.800311029
21.3821202,0.9843690395,0.01959698275,-0.7898919582
21.39212996,0.9821875691,-0.007112545893,-0.7420908809
21.40217025,0.9566141963,-0.007164937444,-0.6679475307
21.42218978,0.8721507788,0.006190096028,-0.5388855338
21.43219954,0.7948704362,0.03495652229,-0.4596700966
21.44223983,0.7018337846,0.1208921298,-0.2953710854
21.45224959,0.5839828849,0.2416267395,-0.09068693221
21.46228987,0.4826272726,0.3793201745,0.1172543913
21.48230941,0.3421759605,0.6007365584,0.4341806173
21.49234969,0.2642034888,0.6626012325,0.5316545367
21.50245101,0.1637912393,0.7177448869,0.604600668
21.51252181,0.0475759469,0.7286007404,0.6346307397
21.52259261,-0.06858576089,0.7371435165,0.6444219351
21.53266341,-0.1701742113,0.7048345208,0.6165909767
21.54291732,-0.2466925085,0.6689445972,0.5573241711
21.56290633,-0.2997188866,0.5898976922,0.4327197075
21.57297713,-0.2813568413,0.5297102332,0.3746558428
21.58304793,-0.2462056279,0.4339495897,0.2609858513
21.59311873,-0.1927154958,0.2827217281,0.08071085066
21.60318953,-0.1395553201,0.1164092943,-0.1262789816
21.61326033,-0.09036091715,-0.03662871942,-0.3157891035
21.62333113,-0.05459738895,-0.1498076916,-0.451402992
21.63340194,-0.02059544437,-0.2371665686,-0.5292157531
21.64371688,0.02614336833,-0.3157912493,-0.5697200894
21.66361434,0.1524948478,-0.4658745229,-0.6185093522
21.67368514,0.217473194,-0.5166697502,-0.6216598749
21.68375594,0.2737454474,-0.5543473959,-0.6211349964
21.69385726,0.3085185885,-0.5706486702,-0.6037918329
21.70389754,0.334474802,-0.5960523486,-0.6031481624
21.71396834,0.3465456367,-0.6241562366,-0.605250597
21.72403914,0.3470222354,-0.6670744419,-0.6102460623
21.73410994,0.3371316791,-0.7174094915,-0.6191651821
21.74418074,0.3247182965,-0.7741137147,-0.6297383904
21.75425154,0.3211185038,-0.8362976909,-0.6376761198
21.76435286,0.32889691,-0.9137880206,-0.6398163438
21.77439315,0.3000038266,-1.006664395,-0.6396299005
21.78446395,0.2326274216,-1.131856084,-0.6412047744
21.79453475,0.1396376044,-1.279108882,-0.648788929
21.80460555,0.0463735722,-1.436677575,-0.6640282869
21.81467635,-0.03377632424,-1.581505537,-0.6892629266
21.82474715,-0.08581892401,-1.741736054,-0.7262178063
21.83481795,-0.1041910946,-1.934109688,-0.7787407637
21.84485823,-0.09457023442,-2.140841722,-0.8513441086
21.85495955,-0.05046445504,-2.375686407,-0.9470865726
21.86503035,0.02962875925,-2.642265558,-1.06667459
21.87510115,0.1372018009,-2.949781656,-1.211915731
21.88517196,0.2788311839,-3.309262991,-1.390846372
21.89521224,0.4659227133,-3.68767333,-1.572297812
21.90531356,0.6808539629,-4.033150196,-1.733548164
21.91535384,0.9259114861,-4.373177052,-1.900117159
21.92545516,1.203721166,-4.718696594,-2.093367577
21.93552596,1.498004675,-5.026830673,-2.279380083
21.94568831,1.766868711,-5.236019135,-2.414494753
21.96576888,2.31223011,-5.608437538,-2.686388731
21.97580916,2.533247471,-5.64766264,-2.769326448
21.98587996,2.699287415,-5.593634129,-2.816135883
21.99592025,2.757951975,-5.348861694,-2.761815071
22.00602156,2.844688892,-5.19666481,-2.769336224
22.01609237,2.902509928,-5.012400627,-2.771327972
22.02616316,2.938040495,-4.803379536,-2.760755062
22.03623397,2.943684578,-4.566788673,-2.73142314
22.04648787,2.921480656,-4.313697815,-2.68126893
22.06644637,2.896243572,-3.895300388,-2.590836525
22.07651717,2.85145998,-3.611199856,-2.487018347
22.08658797,2.819051981,-3.300844669,-2.367150784
22.09665877,2.743368387,-2.919264078,-2.180221319
22.10672957,2.741042137,-2.625371218,-2.044703245
22.11680037,2.736261606,-2.345992804,-1.907442331
22.12687117,2.737303019,-2.098917723,-1.77428484
22.13694197,2.73461175,-1.881066084,-1.644237041
22.14731795,2.715908766,-1.681121826,-1.512048006
22.16715438,2.705981255,-1.371558666,-1.220979691
22.17722518,2.66192627,-1.227593541,-1.016032815
22.18729598,2.627179384,-1.108059883,-0.7909762263
22.19736678,2.529681683,-0.982839644,-0.5205050707
22.20740706,2.526805162,-0.8810856342,-0.2082698792
22.21750838,2.532877684,-0.790504992,0.1827288568
22.2276097,2.535716534,-0.7535930872,0.6005766392
22.23764998,2.520382643,-0.7661072016,1.009165049
22.24817855,2.49858427,-0.8150115013,1.456461906
22.26786238,2.431586266,-1.012301683,2.457202196
22.27793319,2.313322067,-1.144478679,2.926235199
22.28800399,2.158879995,-1.315879464,3.387582779
22.29807479,1.921863675,-1.487223268,3.721209288
22.30814559,1.704840302,-1.717705488,4.083858967
22.31818587,1.463776708,-1.965805769,4.388193607
22.32828719,1.208741546,-2.199084044,4.629935265
22.33835799,0.9483175278,-2.398162127,4.803139687
22.34888655,0.6925802827,-2.565169573,4.906502247
22.36857039,0.2543486953,-2.824331045,4.976801395
22.37864119,0.07685359567,-2.819542885,4.824052334
22.38871199,-0.046771314,-2.749940395,4.579827309
22.39878279,-0.1264169365,-2.58215785,4.177503586
22.4088536,-0.2033661306,-2.496978045,3.918708563
22.4189244,-0.2790846825,-2.427735806,3.645278931
22.4289952,-0.3237101734,-2.322988272,3.363299847
22.439066,-0.340277493,-2.163098574,3.070526123
22.44980819,-0.3573315144,-2.002736092,2.769927025
22.4692784,-0.3539744914,-1.699763298,2.240771532
22.4793492,-0.3144403398,-1.539555907,1.990458488
22.48942,-0.2527462244,-1.352362037,1.677047253
22.4994908,-0.1039825752,-0.9829058051,1.13160336
22.5095616,0.04046802223,-0.6367518306,0.6577135324
22.5196324,0.1092444286,-0.4335199594,0.3926965892
22.5297032,0.1554178894,-0.238513127,0.1251684874
22.539774,0.2409634292,-0.02102739364,-0.1753996164
22.55060775,0.346820116,0.1760893017,-0.4504842162
22.56998641,0.5265493393,0.4568911195,-0.9577380419
22.58002669,0.6113160253,0.5686904192,-1.197416067
22.59009749,0.6896817684,0.6673783064,-1.415252566
22.60019881,0.7148311138,0.70723176,-1.51265502
22.61023909,0.7154678106,0.7204634547,-1.610372424
22.62027938,0.6965211034,0.6701235175,-1.654191613
22.63035018,0.6910432577,0.6030297279,-1.646795988
22.64039046,0.6876153946,0.5283182263,-1.602248669
22.65131575,0.682484746,0.4518562853,-1.529560804
22.6706639,0.6737966537,0.3628533185,-1.368425369
22.6807347,0.6546027064,0.3020611703,-1.254805446
22.6908055,0.6226400733,0.2326570898,-1.138720274
22.7008763,0.5602116585,0.1408444941,-0.9959871769
22.71091658,0.5068064928,0.03453456983,-0.8862249851
22.7210179,0.4562375247,-0.06588215381,-0.7892924547
22.73105819,0.4226301312,-0.1494074762,-0.6940863729
22.74109847,0.3761111498,-0.2478361577,-0.5919128656
22.7613011,0.1833546311,-0.5429916382,-0.4173099399
22.77137191,0.07789088041,-0.6690376401,-0.3633044064
22.78141219,0.01998336799,-0.731618762,-0.3339684308
22.79148299,0.006300292909,-0.7311676145,-0.3017881811
22.80155379,0.009742604569,-0.7343617678,-0.2723819911
22.81162459,0.01129201427,-0.7247946262,-0.275975585
22.82175643,0.007951165549,-0.7182466984,-0.3130723238
22.83179671,0.001961540896,-0.7178963423,-0.3664123118
22.84186751,-0.001206792425,-0.7365961075,-0.4144808054
22.85193831,-0.004471544642,-0.7558420897,-0.446208775
22.86225325,-0.005271688104,-0.7754943967,-0.4645342529
22.88221175,0.005156644154,-0.8432284594,-0.4959561229
22.89225203,0.01709061861,-0.8595224023,-0.5008673668
22.90232283,0.03609414771,-0.8884649277,-0.4971374869
22.91239363,0.04942397028,-0.8885565996,-0.4709839225
22.92246444,0.05886735395,-0.9201389551,-0.4497503936
22.93256575,0.06560068578,-0.9747935534,-0.4243344665
22.94260604,0.06832958013,-1.052890182,-0.3971766531
22.95270736,0.06866338849,-1.156644702,-0.3703286052
22.96314437,0.06461040676,-1.27668941,-0.3446380198
22.98288924,0.06387320161,-1.640426517,-0.3056921959
22.99296004,0.06618995219,-1.830032229,-0.2854663432
23.00306136,0.07874130458,-2.045559883,-0.2689707577
23.01310164,0.0864245072,-2.183467865,-0.2487058789
23.02317244,0.1035605446,-2.383033991,-0.240058884
23.03324324,0.1204691902,-2.572259665,-0.2363365591
23.04331404,0.1345572174,-2.74932003,-0.2389570922
23.05338484,0.1494890302,-2.912005663,-0.2489461005
23.06397445,0.163705796,-3.042660952,-0.2652769685
23.08356491,0.2094155252,-3.376047373,-0.3380865753
23.09363572,0.234495312,-3.409391642,-0.3871703744
23.103676,0.2619421482,-3.40884304,-0.4557633698
23.1137468,0.2701554596,-3.254039764,-0.5259474516
23.1238176,0.2789618373,-3.086452484,-0.6065893173
23.1338884,0.2941755652,-2.975044489,-0.7094470859
23.1439592,0.291229248,-2.815984726,-0.8385750055
23.15399948,0.2630219758,-2.635445833,-0.9944888353
23.16519944,0.2302432358,-2.388143778,-1.141283035
23.1842424,0.2329945266,-2.066224575,-1.493795156
23.19486252,0.2211500555,-1.782819986,-1.648687243
23.2049028,0.2048536986,-1.492619514,-1.882151246
23.21491257,0.1740059257,-1.132765174,-1.987380505
23.22495285,0.1325243562,-0.8070600033,-2.036545277
23.23496262,0.0821056664,-0.5076147914,-2.135166168
23.24497238,0.007076020353,-0.1799514592,-2.256908417
23.25501267,-0.06672342867,0.1066066176,-2.35622406
23.26642624,-0.1222665161,0.3165082633,-2.343417168
23.28540818,-0.2902615964,0.7823368311,-2.551769257
23.30512253,-0.6170769334,1.383039713,-2.799954891
23.31519333,-0.7413090467,1.521585703,-2.699166775
23.32526413,-0.8234323263,1.590850949,-2.61498642
23.33533493,-0.8832136989,1.608053803,-2.520481586
23.35547654,-0.9814559221,1.582948446,-2.398316383
23.36667649,-0.9771800637,1.50785017,-2.245147467
23.38587204,-0.9889082313,1.435218096,-2.019250393
23.40583054,-0.9812169671,1.355543613,-1.739857435
23.41590134,-0.8988695741,1.223702788,-1.399040818
23.42600266,-0.7931324244,1.075826406,-0.9911055565
23.43604294,-0.6828450561,0.9164723158,-0.4930893481
23.44611374,-0.5992137194,0.7759981751,-0.01233363152
23.45618454,-0.5340300798,0.641405344,0.4372363091
23.46726242,-0.4491210878,0.4734924436,0.9374798536
23.48694626,-0.331754446,0.1840943843,1.989417195
23.49695603,-0.2737075686,0.0327408798,2.435044289
23.50699631,-0.2233841717,-0.1300294399,2.917974234
23.51700608,-0.1683003306,-0.2871766686,3.201749325
23.52701584,-0.1305131167,-0.4349701405,3.422245264
23.53705613,-0.1184118837,-0.5837982297,3.684138775
23.54706589,-0.1186022535,-0.7232046127,3.900046825
23.55710617,-0.1270207912,-0.8413481116,4.052817822
23.56711594,-0.14107804,-0.9235937595,4.142887592
23.57715622,-0.1540528089,-0.9722528458,4.167550087
23.58716599,-0.1662511677,-0.9522966146,4.118143559
23.59717575,-0.1683148295,-0.8724671006,3.948948383
23.60724656,-0.1632000655,-0.7682364583,3.741159678
23.61731736,-0.1423454136,-0.665843904,3.534587622
23.62738816,-0.1139704585,-0.5537526608,3.306658268
23.63748947,-0.08245009929,-0.4405053556,3.057435751
23.64752976,-0.05502009764,-0.3345453739,2.798534155
23.65760056,-0.030796526,-0.2577027977,2.538045645
23.66767136,-0.01189767756,-0.2069275677,2.282915115
23.67774216,0.009850240313,-0.1586713195,2.046560526
23.68781296,0.04620586336,-0.1154801399,1.838022232
23.69788376,0.1020175591,-0.06157310307,1.63318646
23.70795456,0.225988239,0.1363731027,1.2553339
23.71802536,0.3508273065,0.3572120667,0.8482981324
23.72809616,0.4166589379,0.5083767176,0.5328390598
23.73816696,0.4417828321,0.5947219133,0.3101036847
23.74823777,0.4633092582,0.6939391494,0.06041432917
23.75830857,0.5093712807,0.7938237786,-0.1706420928
23.76837937,0.5400307775,0.8626616597,-0.3652458191
23.77845017,0.5574107766,0.8947623372,-0.5305712819
23.788582,0.5784391761,0.9041863084,-0.674584806
23.79859177,0.6065884829,0.8909754157,-0.7942553163
23.80860154,0.6373351812,0.8711212277,-0.8905514479
23.81876389,0.6776843071,0.8323862553,-0.9655535221
23.82883469,0.7226859927,0.7711638808,-1.01317358
23.83890549,0.7649211287,0.6934588552,-1.032352567
23.84897629,0.8013109565,0.5968118906,-1.021307588
23.85904709,0.8249469399,0.490575105,-0.9771354795
23.86911789,0.8346888423,0.3757511079,-0.9035413265
23.87918869,0.824187398,0.2727895677,-0.8109018803
23.88925949,0.7990338802,0.1656342894,-0.7183107138
23.89929978,0.753093183,0.08638578653,-0.6442211866
23.9094011,0.6989326477,0.01879191771,-0.5550948381
23.91944138,0.647443831,-0.06427932531,-0.4332768023
23.92951218,0.5975701809,-0.1532162279,-0.2927054763
23.93955246,0.553584218,-0.240945369,-0.1543003321
23.94956223,0.5253949165,-0.3238606751,-0.03161498532
23.95972458,0.4827778637,-0.4128897488,0.07621608675
23.96979538,0.4132935703,-0.5210815668,0.1732413322
23.97986618,0.3269203901,-0.6360289454,0.2578933537
23.98993698,0.2383139431,-0.7505643368,0.3269996941
24.0000383,0.1572782397,-0.8537150621,0.3817791939
24.01007859,0.08897908777,-0.9285079837,0.4226983786
24.02014939,0.04002318531,-0.992015183,0.451901406
24.03022019,0.005728230346,-1.040957332,0.4741683602
24.04029099,-0.01690854318,-1.087209821,0.4932188392
24.05036179,-0.02970833518,-1.142799616,0.5133902431
24.06043259,-0.04084527865,-1.190185189,0.5384374857
24.07050339,-0.04662470147,-1.264015317,0.5700855851
24.08057419,-0.05866993964,-1.328237772,0.6110181808
24.09064499,-0.07549721748,-1.394967556,0.6608191133
24.10071579,-0.09796892107,-1.470772982,0.710288465
24.11109177,-0.123573333,-1.571147323,0.7525843978
24.13095871,-0.1933175623,-1.825327396,0.8106279373
24.14102951,-0.2267952561,-1.934248805,0.8011442423
24.1510698,-0.2596949041,-2.033399582,0.7748289108
24.1611406,-0.2827236652,-2.07343483,0.7150495648
24.17118088,-0.3060845733,-2.175604105,0.659185946
24.1812822,-0.3257918358,-2.270564556,0.5892620683
24.19132248,-0.3441145718,-2.347938538,0.5067179799
24.20145432,-0.3627651334,-2.393267632,0.4169495404
24.2114946,-0.3770547509,-2.439849854,0.325609982
24.2215654,-0.3886386752,-2.474545956,0.2507715523
24.2316362,-0.3915778399,-2.474506617,0.1515197456
24.241707,-0.3748961687,-2.360492706,-0.1072559431
24.25177781,-0.3690026999,-2.237242222,-0.3857396841
24.2618486,-0.3515619636,-2.10956645,-0.6239444017
24.27191941,-0.3205086291,-1.995016098,-0.8420351744
24.28202072,-0.2921450436,-1.8300488,-1.095791578
24.29206101,-0.2665050626,-1.628759146,-1.385051608
24.30213181,-0.2348354161,-1.4592309,-1.632202029
24.31220261,-0.2044748962,-1.296176195,-1.828062415
24.32227341,-0.1835329682,-1.108477712,-2.046424389
24.33237473,-0.1756948084,-0.8961886764,-2.275703192
24.34244553,-0.1659068465,-0.6995124221,-2.464460611
24.35248581,-0.1627703309,-0.4907355905,-2.635929108
24.36255661,-0.1646229476,-0.2769528627,-2.792844534
24.37262741,-0.1871552169,-0.03824005648,-2.935737133
24.38272873,-0.2328992635,0.2160122395,-3.06712079
24.39279953,-0.2901486754,0.468431443,-3.1856215
24.40283982,-0.3428781331,0.6912438869,-3.288820982
24.41291062,-0.39512977,0.8880190253,-3.3716712
24.42298142,-0.4737038016,1.083757162,-3.389234066
24.43305222,-0.5829361677,1.279164791,-3.345564842
24.44312302,-0.7158764601,1.479109406,-3.290130615
24.45319382,-0.8430057168,1.654077291,-3.249816656
24.46326462,-0.9362103939,1.767076492,-3.190732479
24.47333542,-1.006921887,1.818298697,-3.09918642
24.48340622,-1.08652544,1.841571093,-2.990263462
24.49347702,-1.175132871,1.843991637,-2.856407404
24.50354782,-1.237424016,1.839186072,-2.694469452
24.51361863,-1.281549454,1.82537961,-2.499439716
24.52371994,-1.304549932,1.78815186,-2.278298378
24.53379074,-1.327424645,1.736161947,-2.034742117
24.54383103,-1.325847268,1.649756312,-1.666995525
24.55387131,-1.317481279,1.523968458,-1.211841702
24.56391159,-1.314547777,1.368843198,-0.6925393343
24.57398239,-1.317319036,1.227095962,-0.2107292116
24.58408371,-1.325099349,1.106825352,0.2533259392
24.594124,-1.312393904,0.9646718502,0.8174961805
24.60422531,-1.286786437,0.834444344,1.357795238
24.6142656,-1.246608973,0.7103698254,1.876793385
24.6243364,-1.1915344,0.5827195048,2.38890028
24.63443772,-1.129538417,0.4478485584,2.875877619
24.64450852,-1.074982166,0.3191181719,3.321553946
24.65457932,-1.019171357,0.1907218099,3.712470055
24.66465012,-0.9647327662,0.06606671214,4.040238857
24.67472092,-0.9128226638,-0.0286013782,4.299551487
24.68479172,-0.8541376591,-0.1018648595,4.486244678
24.694832,-0.7967188358,-0.136159122,4.599673271
24.70493332,-0.7278958559,-0.146191597,4.635515213
24.7149736,-0.6535488367,-0.1052702814,4.601217747
24.72507492,-0.5788404346,-0.01789676026,4.466506004
24.73511521,-0.511934042,0.09669208527,4.232014656
24.74521652,-0.4372056723,0.1881780624,3.991171837
24.75525681,-0.3539767861,0.2777737379,3.727157354
24.76538864,-0.2787734568,0.3787740171,3.435954809
24.77545945,-0.2235907018,0.4599174857,3.124882936
24.78553025,-0.162259087,0.5314154625,2.813838005
24.79560105,-0.07450723648,0.5873125196,2.51786232
24.80567185,0.0545739159,0.6739041805,2.204502583
24.81574265,0.0545739159,0.6739041805,2.204502583
